subject	date	time	currenttime	currenttime_plus_ms	blocknum	trialnum	blockcode	trialcode	pretrialpause	posttrialpause	trialduration	trialtimeout	response	correct	latency	stimulusnumber1	stimulusitem1	stimulusonset1	stimulusnumber2	stimulusitem2	stimulusonset2	stimulusnumber3	stimulusitem3	stimulusonset3
20	2023-04-20	12:26:53	12:31:31	12:31:31:355	1	1	countdown	instructions	0	5	0	0	57	0	3762	1	<center><br><br> <b>WATCH CALLIBRATION</b>.                <br><br><br><br>In a couple of seconds a <b>countdown</b> will start that counts down from 3 to 1,       <br><br>after which the screen will show the instruction <b>PRESS BUTTON</b>.       <br><br><b>As soon as you see that screen</b>, you must shortly press the button on your watch.       <br><br> <br><br> Press SPACE  to continue.	-16	0	0	0	0	0	0
20	2023-04-20	12:26:53	12:31:32	12:31:32:394	1	2	countdown	countdown_3	0	5	0	0	0	0	1000	1	3	-8	0	0	0	0	0	0
20	2023-04-20	12:26:53	12:31:33	12:31:33:410	1	3	countdown	countdown_2	0	5	0	0	0	0	1000	1	2	-16	0	0	0	0	0	0
20	2023-04-20	12:26:53	12:31:34	12:31:34:427	1	4	countdown	countdown_1	0	5	0	0	0	0	1000	1	1	-16	0	0	0	0	0	0
20	2023-04-20	12:26:53	12:31:35	12:31:35:444	1	5	countdown	press_button	0	5	0	0	0	0	1000	1	PRESS BUTTON NOW	-16	0	0	0	0	0	0
20	2023-04-20	12:26:53	12:34:42	12:34:42:031	2	1	Rest	Rest	0	5	0	0	0	0	180000	1	+	-16	0	0	0	0	0	0
20	2023-04-20	12:26:53	12:34:46	12:34:46:223	3	1	countdown	instructions	0	5	0	0	57	0	4148	1	<center><br><br> <b>WATCH CALLIBRATION</b>.                <br><br><br><br>In a couple of seconds a <b>countdown</b> will start that counts down from 3 to 1,       <br><br>after which the screen will show the instruction <b>PRESS BUTTON</b>.       <br><br><b>As soon as you see that screen</b>, you must shortly press the button on your watch.       <br><br> <br><br> Press SPACE  to continue.	-5	0	0	0	0	0	0
20	2023-04-20	12:26:53	12:34:47	12:34:47:258	3	2	countdown	countdown_3	0	5	0	0	0	0	1000	1	3	-9	0	0	0	0	0	0
20	2023-04-20	12:26:53	12:34:48	12:34:48:274	3	3	countdown	countdown_2	0	5	0	0	0	0	1000	1	2	-16	0	0	0	0	0	0
20	2023-04-20	12:26:53	12:34:49	12:34:49:291	3	4	countdown	countdown_1	0	5	0	0	0	0	1000	1	1	-16	0	0	0	0	0	0
20	2023-04-20	12:26:53	12:34:50	12:34:50:308	3	5	countdown	press_button	0	5	0	0	0	0	1000	1	PRESS BUTTON NOW	-16	0	0	0	0	0	0
20	2023-04-20	12:26:53	12:35:31	12:35:31:04	2	1	Reminder_Objects_CSm	fixation	0	5	1000	0	0	1	995	1	+	-8	0	0	0	0	0	0
20	2023-04-20	12:26:53	12:35:36	12:35:36:035	2	2	Reminder_Objects_CSm	Objects_CSm	0	5	0	0	0	0	5000	2	Object8.jpg	-6	0	0	0	0	0	0
20	2023-04-20	12:26:53	12:35:44	12:35:44:150	2	3	Reminder_Objects_CSm	expectancy_object	0	1000	0	0	40	0	8031	1	When you saw the <b>object</b>,   to what <b>degree (0-100%)</b> did you expect the <b>unpleasant sound to occur</b>?	11	0	0	0	0	0	0
20	2023-04-20	12:26:53	12:35:46	12:35:46:636	3	1	Reminder_Baseline_CSp	fixation	0	5	500	0	0	1	495	1	+	-9	0	0	0	0	0	0
20	2023-04-20	12:26:53	12:35:51	12:35:51:653	3	2	Reminder_Baseline_CSp	Baseline_CSp	0	5	0	0	0	0	5000	1	+	-16	4	Cue27.jpg	-16	4	Target27.jpg	-16
20	2023-04-20	12:26:53	12:35:57	12:35:57:418	3	3	Reminder_Baseline_CSp	valence	0	5	0	0	36	0	5711	1	I found these images to be...	-16	0	0	0	0	0	0
20	2023-04-20	12:26:53	12:36:02	12:36:02:068	3	4	Reminder_Baseline_CSp	expectancy	0	1000	0	0	66	0	5566	1	When you saw the <b>object-scene</b>,   to what <b>degree (0-100%)</b> did you expect the <b>unpleasant sound to occur</b>?	-7	0	0	0	0	0	0
20	2023-04-20	12:26:53	12:36:05	12:36:05:550	4	1	Reminder_Think_CSp	fixation	0	5	1500	0	0	1	1495	1	+	-12	0	0	0	0	0	0
20	2023-04-20	12:26:53	12:36:10	12:36:10:572	4	2	Reminder_Think_CSp	Think_CSp	0	5	0	0	0	0	5000	1	+	-10	1	Cue13.jpg	-10	1	Target13.jpg	-10
20	2023-04-20	12:26:53	12:36:13	12:36:13:435	4	3	Reminder_Think_CSp	valence	0	5	0	0	35	0	2841	1	I found these images to be...	-16	0	0	0	0	0	0
20	2023-04-20	12:26:53	12:36:19	12:36:19:986	4	4	Reminder_Think_CSp	expectancy	0	500	0	0	68	0	6510	1	When you saw the <b>object-scene</b>,   to what <b>degree (0-100%)</b> did you expect the <b>unpleasant sound to occur</b>?	-10	0	0	0	0	0	0
20	2023-04-20	12:26:53	12:36:21	12:36:21:484	5	1	Reminder_NoThink_CSm	fixation	0	5	1000	0	0	1	995	1	+	-15	0	0	0	0	0	0
20	2023-04-20	12:26:53	12:36:26	12:36:26:503	5	2	Reminder_NoThink_CSm	NoThink_CSm	0	5	0	0	0	0	5000	1	+	-13	1	Cue3.jpg	-13	1	Target3.jpg	-13
20	2023-04-20	12:26:53	12:36:29	12:36:29:136	5	3	Reminder_NoThink_CSm	valence	0	5	0	0	37	0	3603	1	I found these images to be...	-16	0	0	0	0	0	0
20	2023-04-20	12:26:53	12:36:37	12:36:37:437	5	4	Reminder_NoThink_CSm	expectancy	0	1500	0	0	46	0	7257	1	When you saw the <b>object-scene</b>,   to what <b>degree (0-100%)</b> did you expect the <b>unpleasant sound to occur</b>?	-10	0	0	0	0	0	0
20	2023-04-20	12:26:53	12:36:40	12:36:40:437	6	1	Reminder_Baseline_CSp	fixation	0	5	1500	0	0	1	1495	1	+	-15	0	0	0	0	0	0
20	2023-04-20	12:26:53	12:36:45	12:36:45:454	6	2	Reminder_Baseline_CSp	Baseline_CSp	0	5	0	0	0	0	5000	1	+	-16	1	Cue21.jpg	-16	1	Target21.jpg	-16
20	2023-04-20	12:26:53	12:36:49	12:36:49:704	6	3	Reminder_Baseline_CSp	valence	0	5	0	0	35	0	4220	1	I found these images to be...	-16	0	0	0	0	0	0
20	2023-04-20	12:26:53	12:36:57	12:36:57:255	6	4	Reminder_Baseline_CSp	expectancy	0	1500	0	0	55	0	8481	1	When you saw the <b>object-scene</b>,   to what <b>degree (0-100%)</b> did you expect the <b>unpleasant sound to occur</b>?	-10	0	0	0	0	0	0
20	2023-04-20	12:26:53	12:36:59	12:36:59:242	7	1	PracticeItems_NoThink	fixation	0	5	500	0	0	1	495	1	+	-9	0	0	0	0	0	0
20	2023-04-20	12:26:53	12:37:04	12:37:04:258	7	2	PracticeItems_NoThink	PracticeItems_NoThink	0	5	0	0	0	0	5000	1	+	-16	1	Cue39.jpg	-16	1	Target39.jpg	-16
20	2023-04-20	12:26:53	12:37:09	12:37:09:789	7	3	PracticeItems_NoThink	valence	0	5	0	0	32	0	4483	1	I found these images to be...	-16	0	0	0	0	0	0
20	2023-04-20	12:26:53	12:37:14	12:37:14:722	7	4	PracticeItems_NoThink	expectancy	0	1000	0	0	64	0	4884	1	When you saw the <b>object-scene</b>,   to what <b>degree (0-100%)</b> did you expect the <b>unpleasant sound to occur</b>?	-9	0	0	0	0	0	0
20	2023-04-20	12:26:53	12:37:15	12:37:15:221	8	1	Reminder_NoThink_CSp	fixation	0	5	500	0	0	1	495	1	+	-14	0	0	0	0	0	0
20	2023-04-20	12:26:53	12:37:20	12:37:20:239	8	2	Reminder_NoThink_CSp	NoThink_CSp	0	5	0	0	0	0	5000	1	+	-13	5	Cue1.jpg	-13	5	Target1.jpg	-13
20	2023-04-20	12:26:53	12:37:28	12:37:28:106	8	3	Reminder_NoThink_CSp	valence	0	5	0	0	35	0	7835	1	I found these images to be...	-16	0	0	0	0	0	0
20	2023-04-20	12:26:53	12:37:33	12:37:33:507	8	4	Reminder_NoThink_CSp	expectancy	0	500	0	0	60	0	4359	1	When you saw the <b>object-scene</b>,   to what <b>degree (0-100%)</b> did you expect the <b>unpleasant sound to occur</b>?	-10	0	0	0	0	0	0
20	2023-04-20	12:26:53	12:37:35	12:37:35:505	9	1	Reminder_Objects_CSm	fixation	0	5	1500	0	0	1	1495	1	+	-14	0	0	0	0	0	0
20	2023-04-20	12:26:53	12:37:40	12:37:40:524	9	2	Reminder_Objects_CSm	Objects_CSm	0	5	0	0	0	0	5000	4	Object5.jpg	-14	0	0	0	0	0	0
20	2023-04-20	12:26:53	12:37:47	12:37:47:908	9	3	Reminder_Objects_CSm	expectancy_object	0	1500	0	0	26	0	7358	1	When you saw the <b>object</b>,   to what <b>degree (0-100%)</b> did you expect the <b>unpleasant sound to occur</b>?	-16	0	0	0	0	0	0
20	2023-04-20	12:26:53	12:37:50	12:37:50:406	10	1	Reminder_Think_CSp	fixation	0	5	1000	0	0	1	995	1	+	-14	0	0	0	0	0	0
20	2023-04-20	12:26:53	12:37:55	12:37:55:427	10	2	Reminder_Think_CSp	Think_CSp	0	5	0	0	0	0	5000	1	+	-11	2	Cue8.jpg	-11	2	Target8.jpg	-11
20	2023-04-20	12:26:53	12:37:59	12:37:59:158	10	3	Reminder_Think_CSp	valence	0	5	0	0	33	0	4713	1	I found these images to be...	-16	0	0	0	0	0	0
20	2023-04-20	12:26:53	12:38:03	12:38:03:509	10	4	Reminder_Think_CSp	expectancy	0	500	0	0	67	0	3315	1	When you saw the <b>object-scene</b>,   to what <b>degree (0-100%)</b> did you expect the <b>unpleasant sound to occur</b>?	-12	0	0	0	0	0	0
20	2023-04-20	12:26:53	12:38:05	12:38:05:507	11	1	Reminder_Baseline_CSp	fixation	0	5	1500	0	0	1	1495	1	+	-15	0	0	0	0	0	0
20	2023-04-20	12:26:53	12:38:10	12:38:10:526	11	2	Reminder_Baseline_CSp	Baseline_CSp	0	5	0	0	0	0	5000	1	+	-13	2	Cue20.jpg	-13	2	Target20.jpg	-13
20	2023-04-20	12:26:53	12:38:18	12:38:18:376	11	3	Reminder_Baseline_CSp	valence	0	5	0	0	35	0	7820	1	I found these images to be...	-16	0	0	0	0	0	0
20	2023-04-20	12:26:53	12:38:20	12:38:20:643	11	4	Reminder_Baseline_CSp	expectancy	0	1000	0	0	75	0	2217	1	When you saw the <b>object-scene</b>,   to what <b>degree (0-100%)</b> did you expect the <b>unpleasant sound to occur</b>?	-9	0	0	0	0	0	0
20	2023-04-20	12:26:53	12:38:21	12:38:21:141	12	1	Reminder_Baseline_CSm	fixation	0	5	500	0	0	1	495	1	+	-15	0	0	0	0	0	0
20	2023-04-20	12:26:53	12:38:26	12:38:26:160	12	2	Reminder_Baseline_CSm	Baseline_CSm	0	5	0	0	0	0	5000	1	+	-13	1	Cue25.jpg	-13	1	Target25.jpg	-13
20	2023-04-20	12:26:53	12:38:31	12:38:31:494	12	3	Reminder_Baseline_CSm	valence	0	5	0	0	25	0	4314	1	I found these images to be...	-16	0	0	0	0	0	0
20	2023-04-20	12:26:53	12:38:37	12:38:37:177	12	4	Reminder_Baseline_CSm	expectancy	0	1500	0	0	43	0	6636	1	When you saw the <b>object-scene</b>,   to what <b>degree (0-100%)</b> did you expect the <b>unpleasant sound to occur</b>?	-10	0	0	0	0	0	0
20	2023-04-20	12:26:53	12:38:40	12:38:40:676	13	1	Reminder_NoThink_CSm	fixation	0	5	1000	0	0	1	995	1	+	-14	0	0	0	0	0	0
20	2023-04-20	12:26:53	12:38:45	12:38:45:697	13	2	Reminder_NoThink_CSm	NoThink_CSm	0	5	0	0	0	0	5000	1	+	-11	2	Cue33.jpg	-11	2	Target33.jpg	-11
20	2023-04-20	12:26:53	12:38:49	12:38:49:561	13	3	Reminder_NoThink_CSm	valence	0	5	0	0	30	0	3844	1	I found these images to be...	-16	0	0	0	0	0	0
20	2023-04-20	12:26:53	12:38:53	12:38:53:095	13	4	Reminder_NoThink_CSm	expectancy	0	1000	0	0	74	0	4496	1	When you saw the <b>object-scene</b>,   to what <b>degree (0-100%)</b> did you expect the <b>unpleasant sound to occur</b>?	-12	0	0	0	0	0	0
20	2023-04-20	12:26:53	12:38:55	12:38:55:093	14	1	PracticeItems_Think	fixation	0	5	1000	0	0	1	995	1	+	-15	0	0	0	0	0	0
20	2023-04-20	12:26:53	12:39:00	12:39:00:112	14	2	PracticeItems_Think	PracticeItems_Think	0	5	0	0	0	0	5000	1	+	-14	2	Cue38.jpg	-14	2	Target38.jpg	-14
20	2023-04-20	12:26:53	12:39:07	12:39:07:429	14	3	PracticeItems_Think	valence	0	5	0	0	20	0	6290	1	I found these images to be...	-16	0	0	0	0	0	0
20	2023-04-20	12:26:53	12:39:10	12:39:10:012	14	4	PracticeItems_Think	expectancy	0	500	0	0	70	0	3540	1	When you saw the <b>object-scene</b>,   to what <b>degree (0-100%)</b> did you expect the <b>unpleasant sound to occur</b>?	-9	0	0	0	0	0	0
20	2023-04-20	12:26:53	12:39:12	12:39:12:011	15	1	Reminder_Think_CSp	fixation	0	5	1500	0	0	1	1495	1	+	-14	0	0	0	0	0	0
20	2023-04-20	12:26:53	12:39:17	12:39:17:030	15	2	Reminder_Think_CSp	Think_CSp	0	5	0	0	0	0	5000	1	+	-13	3	Cue19.jpg	-13	3	Target19.jpg	-13
20	2023-04-20	12:26:53	12:39:21	12:39:21:130	15	3	Reminder_Think_CSp	valence	0	5	0	0	27	0	4076	1	I found these images to be...	-16	0	0	0	0	0	0
20	2023-04-20	12:26:53	12:39:25	12:39:25:897	15	4	Reminder_Think_CSp	expectancy	0	1500	0	0	64	0	3719	1	When you saw the <b>object-scene</b>,   to what <b>degree (0-100%)</b> did you expect the <b>unpleasant sound to occur</b>?	-10	0	0	0	0	0	0
20	2023-04-20	12:26:53	12:39:27	12:39:27:896	16	1	Reminder_NoThink_CSm	fixation	0	5	500	0	0	1	495	1	+	-14	0	0	0	0	0	0
20	2023-04-20	12:26:53	12:39:32	12:39:32:916	16	2	Reminder_NoThink_CSm	NoThink_CSm	0	5	0	0	0	0	5000	1	+	-16	3	Cue16.jpg	-16	3	Target16.jpg	-16
20	2023-04-20	12:26:53	12:39:35	12:39:35:097	16	3	Reminder_NoThink_CSm	valence	0	5	0	0	43	0	3152	1	I found these images to be...	-16	0	0	0	0	0	0
20	2023-04-20	12:26:53	12:39:38	12:39:38:881	16	4	Reminder_NoThink_CSm	expectancy	0	1500	0	0	57	0	2736	1	When you saw the <b>object-scene</b>,   to what <b>degree (0-100%)</b> did you expect the <b>unpleasant sound to occur</b>?	0	0	0	0	0	0	0
20	2023-04-20	12:26:53	12:39:40	12:39:40:880	17	1	Reminder_NoThink_CSp	fixation	0	5	500	0	0	1	495	1	+	-15	0	0	0	0	0	0
20	2023-04-20	12:26:53	12:39:45	12:39:45:898	17	2	Reminder_NoThink_CSp	NoThink_CSp	0	5	0	0	0	0	5000	1	+	-16	3	Cue14.jpg	-16	3	Target14.jpg	-16
20	2023-04-20	12:26:53	12:39:50	12:39:50:215	17	3	Reminder_NoThink_CSp	valence	0	5	0	0	29	0	5288	1	I found these images to be...	-16	0	0	0	0	0	0
20	2023-04-20	12:26:53	12:40:00	12:40:00:282	17	4	Reminder_NoThink_CSp	expectancy	0	1000	0	0	65	0	10018	1	When you saw the <b>object-scene</b>,   to what <b>degree (0-100%)</b> did you expect the <b>unpleasant sound to occur</b>?	-10	0	0	0	0	0	0
20	2023-04-20	12:26:53	12:40:02	12:40:02:281	18	1	Reminder_NoThink_CSp	fixation	0	5	1000	0	0	1	995	1	+	-14	0	0	0	0	0	0
20	2023-04-20	12:26:53	12:40:07	12:40:07:299	18	2	Reminder_NoThink_CSp	NoThink_CSp	0	5	0	0	0	0	5000	1	+	-13	6	Cue6.jpg	-13	6	Target6.jpg	-13
20	2023-04-20	12:26:53	12:40:10	12:40:10:117	18	3	Reminder_NoThink_CSp	valence	0	5	0	0	42	0	2766	1	I found these images to be...	-10	0	0	0	0	0	0
20	2023-04-20	12:26:53	12:40:13	12:40:13:200	18	4	Reminder_NoThink_CSp	expectancy	0	500	0	0	58	0	3037	1	When you saw the <b>object-scene</b>,   to what <b>degree (0-100%)</b> did you expect the <b>unpleasant sound to occur</b>?	-9	0	0	0	0	0	0
20	2023-04-20	12:26:53	12:40:15	12:40:15:198	19	1	Reminder_Baseline_CSp	fixation	0	5	1500	0	0	1	1495	1	+	-15	0	0	0	0	0	0
20	2023-04-20	12:26:53	12:40:20	12:40:20:219	19	2	Reminder_Baseline_CSp	Baseline_CSp	0	5	0	0	0	0	5000	1	+	-13	6	Cue30.jpg	-13	6	Target30.jpg	-13
20	2023-04-20	12:26:53	12:40:26	12:40:26:067	19	3	Reminder_Baseline_CSp	valence	0	5	0	0	35	0	5816	1	I found these images to be...	-15	0	0	0	0	0	0
20	2023-04-20	12:26:53	12:40:29	12:40:29:767	19	4	Reminder_Baseline_CSp	expectancy	0	500	0	0	64	0	2662	1	When you saw the <b>object-scene</b>,   to what <b>degree (0-100%)</b> did you expect the <b>unpleasant sound to occur</b>?	-10	0	0	0	0	0	0
20	2023-04-20	12:26:53	12:40:30	12:40:30:266	20	1	Reminder_Think_CSp	fixation	0	5	1000	0	0	1	995	1	+	-15	0	0	0	0	0	0
20	2023-04-20	12:26:53	12:40:35	12:40:35:284	20	2	Reminder_Think_CSp	Think_CSp	0	5	0	0	0	0	5000	1	+	-14	5	Cue29.jpg	-14	5	Target29.jpg	-14
20	2023-04-20	12:26:53	12:40:41	12:40:41:384	20	3	Reminder_Think_CSp	valence	0	5	0	0	42	0	5070	1	I found these images to be...	-16	0	0	0	0	0	0
20	2023-04-20	12:26:53	12:40:47	12:40:47:401	20	4	Reminder_Think_CSp	expectancy	0	1500	0	0	80	0	5968	1	When you saw the <b>object-scene</b>,   to what <b>degree (0-100%)</b> did you expect the <b>unpleasant sound to occur</b>?	-10	0	0	0	0	0	0
20	2023-04-20	12:26:53	12:40:50	12:40:50:400	21	1	Reminder_Baseline_CSm	fixation	0	5	1500	0	0	1	1495	1	+	-15	0	0	0	0	0	0
20	2023-04-20	12:26:53	12:40:55	12:40:55:419	21	2	Reminder_Baseline_CSm	Baseline_CSm	0	5	0	0	0	0	5000	1	+	-14	5	Cue11.jpg	-14	5	Target11.jpg	-14
20	2023-04-20	12:26:53	12:41:03	12:41:03:453	21	3	Reminder_Baseline_CSm	valence	0	5	0	0	31	0	8015	1	I found these images to be...	-16	0	0	0	0	0	0
20	2023-04-20	12:26:53	12:41:07	12:41:07:753	21	4	Reminder_Baseline_CSm	expectancy	0	1000	0	0	58	0	4253	1	When you saw the <b>object-scene</b>,   to what <b>degree (0-100%)</b> did you expect the <b>unpleasant sound to occur</b>?	-12	0	0	0	0	0	0
20	2023-04-20	12:26:53	12:41:08	12:41:08:253	22	1	Reminder_Objects_CSp	fixation	0	5	500	0	0	1	495	1	+	-5	0	0	0	0	0	0
20	2023-04-20	12:26:53	12:41:13	12:41:13:272	22	2	Reminder_Objects_CSp	Objects_CSp	0	5	0	0	0	0	5000	2	Object2.jpg	-16	0	0	0	0	0	0
20	2023-04-20	12:26:53	12:41:17	12:41:17:537	22	3	Reminder_Objects_CSp	expectancy_object	0	500	0	0	85	0	3244	1	When you saw the <b>object</b>,   to what <b>degree (0-100%)</b> did you expect the <b>unpleasant sound to occur</b>?	-16	0	0	0	0	0	0
20	2023-04-20	12:26:53	12:41:18	12:41:18:036	23	1	Reminder_NoThink_CSp	fixation	0	5	1000	0	0	1	995	1	+	-15	0	0	0	0	0	0
20	2023-04-20	12:26:53	12:41:23	12:41:23:054	23	2	Reminder_NoThink_CSp	NoThink_CSp	0	5	0	0	0	0	5000	1	+	-16	1	Cue18.jpg	-16	1	Target18.jpg	-16
20	2023-04-20	12:26:53	12:41:28	12:41:28:421	23	3	Reminder_NoThink_CSp	valence	0	5	0	0	21	0	4348	1	I found these images to be...	-16	0	0	0	0	0	0
20	2023-04-20	12:26:53	12:41:32	12:41:32:738	23	4	Reminder_NoThink_CSp	expectancy	0	1500	0	0	60	0	4269	1	When you saw the <b>object-scene</b>,   to what <b>degree (0-100%)</b> did you expect the <b>unpleasant sound to occur</b>?	-10	0	0	0	0	0	0
20	2023-04-20	12:26:53	12:41:35	12:41:35:736	24	1	Reminder_NoThink_CSm	fixation	0	5	1500	0	0	1	1495	1	+	-15	0	0	0	0	0	0
20	2023-04-20	12:26:53	12:41:40	12:41:40:755	24	2	Reminder_NoThink_CSm	NoThink_CSm	0	5	0	0	0	0	5000	1	+	-13	5	Cue36.jpg	-13	5	Target36.jpg	-13
20	2023-04-20	12:26:53	12:41:43	12:41:43:305	24	3	Reminder_NoThink_CSm	valence	0	5	0	0	30	0	3518	1	I found these images to be...	-16	0	0	0	0	0	0
20	2023-04-20	12:26:53	12:41:48	12:41:48:772	24	4	Reminder_NoThink_CSm	expectancy	0	500	0	0	66	0	4432	1	When you saw the <b>object-scene</b>,   to what <b>degree (0-100%)</b> did you expect the <b>unpleasant sound to occur</b>?	-9	0	0	0	0	0	0
20	2023-04-20	12:26:53	12:41:49	12:41:49:771	25	1	Reminder_Objects_CSp	fixation	0	5	500	0	0	1	495	1	+	-15	0	0	0	0	0	0
20	2023-04-20	12:26:53	12:41:54	12:41:54:789	25	2	Reminder_Objects_CSp	Objects_CSp	0	5	0	0	0	0	5000	3	Object6.jpg	-14	0	0	0	0	0	0
20	2023-04-20	12:26:53	12:41:58	12:41:58:823	25	3	Reminder_Objects_CSp	expectancy_object	0	500	0	0	81	0	4012	1	When you saw the <b>object</b>,   to what <b>degree (0-100%)</b> did you expect the <b>unpleasant sound to occur</b>?	-16	0	0	0	0	0	0
20	2023-04-20	12:26:53	12:42:00	12:42:00:822	26	1	Reminder_Baseline_CSm	fixation	0	5	1500	0	0	1	1495	1	+	-12	0	0	0	0	0	0
20	2023-04-20	12:26:53	12:42:05	12:42:05:842	26	2	Reminder_Baseline_CSm	Baseline_CSm	0	5	0	0	0	0	5000	1	+	-16	2	Cue9.jpg	-16	2	Target9.jpg	-16
20	2023-04-20	12:26:53	12:42:10	12:42:10:323	26	3	Reminder_Baseline_CSm	valence	0	5	0	0	34	0	5465	1	I found these images to be...	-16	0	0	0	0	0	0
20	2023-04-20	12:26:53	12:42:13	12:42:13:107	26	4	Reminder_Baseline_CSm	expectancy	0	1000	0	0	68	0	2741	1	When you saw the <b>object-scene</b>,   to what <b>degree (0-100%)</b> did you expect the <b>unpleasant sound to occur</b>?	-10	0	0	0	0	0	0
20	2023-04-20	12:26:53	12:42:15	12:42:15:605	27	1	Reminder_Baseline_CSm	fixation	0	5	500	0	0	1	495	1	+	-14	0	0	0	0	0	0
20	2023-04-20	12:26:53	12:42:20	12:42:20:624	27	2	Reminder_Baseline_CSm	Baseline_CSm	0	5	0	0	0	0	5000	1	+	-13	3	Cue26.jpg	-13	3	Target26.jpg	-13
20	2023-04-20	12:26:53	12:42:24	12:42:24:924	27	3	Reminder_Baseline_CSm	valence	0	5	0	0	37	0	4281	1	I found these images to be...	-16	0	0	0	0	0	0
20	2023-04-20	12:26:53	12:42:27	12:42:27:891	27	4	Reminder_Baseline_CSm	expectancy	0	1000	0	0	46	0	2924	1	When you saw the <b>object-scene</b>,   to what <b>degree (0-100%)</b> did you expect the <b>unpleasant sound to occur</b>?	-10	0	0	0	0	0	0
20	2023-04-20	12:26:53	12:42:29	12:42:29:890	28	1	PracticeItems_Think	fixation	0	5	1000	0	0	1	995	1	+	-14	0	0	0	0	0	0
20	2023-04-20	12:26:53	12:42:34	12:42:34:908	28	2	PracticeItems_Think	PracticeItems_Think	0	5	0	0	0	0	5000	1	+	-16	1	Cue37.jpg	-16	1	Target37.jpg	-16
20	2023-04-20	12:26:53	12:42:39	12:42:39:509	28	3	PracticeItems_Think	valence	0	5	0	0	40	0	4549	1	I found these images to be...	-16	0	0	0	0	0	0
20	2023-04-20	12:26:53	12:42:45	12:42:45:359	28	4	PracticeItems_Think	expectancy	0	500	0	0	57	0	5811	1	When you saw the <b>object-scene</b>,   to what <b>degree (0-100%)</b> did you expect the <b>unpleasant sound to occur</b>?	-9	0	0	0	0	0	0
20	2023-04-20	12:26:53	12:42:46	12:42:46:857	29	1	Reminder_Objects_CSp	fixation	0	5	1000	0	0	1	995	1	+	-15	0	0	0	0	0	0
20	2023-04-20	12:26:53	12:42:51	12:42:51:876	29	2	Reminder_Objects_CSp	Objects_CSp	0	5	0	0	0	0	5000	1	Object3.jpg	-14	0	0	0	0	0	0
20	2023-04-20	12:26:53	12:42:54	12:42:54:409	29	3	Reminder_Objects_CSp	expectancy_object	0	1500	0	0	56	0	2477	1	When you saw the <b>object</b>,   to what <b>degree (0-100%)</b> did you expect the <b>unpleasant sound to occur</b>?	-16	0	0	0	0	0	0
20	2023-04-20	12:26:53	12:42:56	12:42:56:395	30	1	Reminder_Baseline_CSm	fixation	0	5	500	0	0	1	495	1	+	-8	0	0	0	0	0	0
20	2023-04-20	12:26:53	12:43:01	12:43:01:412	30	2	Reminder_Baseline_CSm	Baseline_CSm	0	5	0	0	0	0	5000	1	+	-16	6	Cue28.jpg	-16	6	Target28.jpg	-16
20	2023-04-20	12:26:53	12:43:04	12:43:04:226	30	3	Reminder_Baseline_CSm	valence	0	5	0	0	39	0	3783	1	I found these images to be...	-16	0	0	0	0	0	0
20	2023-04-20	12:26:53	12:43:11	12:43:11:794	30	4	Reminder_Baseline_CSm	expectancy	0	1500	0	0	65	0	6518	1	When you saw the <b>object-scene</b>,   to what <b>degree (0-100%)</b> did you expect the <b>unpleasant sound to occur</b>?	0	0	0	0	0	0	0
20	2023-04-20	12:26:53	12:43:14	12:43:14:792	31	1	Reminder_NoThink_CSm	fixation	0	5	1500	0	0	1	1495	1	+	-15	0	0	0	0	0	0
20	2023-04-20	12:26:53	12:43:19	12:43:19:811	31	2	Reminder_NoThink_CSm	NoThink_CSm	0	5	0	0	0	0	5000	1	+	-13	6	Cue23.jpg	-13	6	Target23.jpg	-13
20	2023-04-20	12:26:53	12:43:22	12:43:22:177	31	3	Reminder_NoThink_CSm	valence	0	5	0	0	40	0	3334	1	I found these images to be...	-16	0	0	0	0	0	0
20	2023-04-20	12:26:53	12:43:27	12:43:27:078	31	4	Reminder_NoThink_CSm	expectancy	0	500	0	0	45	0	4855	1	When you saw the <b>object-scene</b>,   to what <b>degree (0-100%)</b> did you expect the <b>unpleasant sound to occur</b>?	-10	0	0	0	0	0	0
20	2023-04-20	12:26:53	12:43:28	12:43:28:076	32	1	Reminder_Think_CSp	fixation	0	5	500	0	0	1	495	1	+	-15	0	0	0	0	0	0
20	2023-04-20	12:26:53	12:43:33	12:43:33:095	32	2	Reminder_Think_CSp	Think_CSp	0	5	0	0	0	0	5000	1	+	-12	6	Cue31.jpg	-12	6	Target31.jpg	-12
20	2023-04-20	12:26:53	12:43:38	12:43:38:295	32	3	Reminder_Think_CSp	valence	0	5	0	0	18	0	5178	1	I found these images to be...	-16	0	0	0	0	0	0
20	2023-04-20	12:26:53	12:43:44	12:43:44:912	32	4	Reminder_Think_CSp	expectancy	0	1000	0	0	68	0	5577	1	When you saw the <b>object-scene</b>,   to what <b>degree (0-100%)</b> did you expect the <b>unpleasant sound to occur</b>?	-12	0	0	0	0	0	0
20	2023-04-20	12:26:53	12:43:46	12:43:46:912	33	1	Reminder_Baseline_CSp	fixation	0	5	1000	0	0	1	995	1	+	-13	0	0	0	0	0	0
20	2023-04-20	12:26:53	12:43:51	12:43:51:932	33	2	Reminder_Baseline_CSp	Baseline_CSp	0	5	0	0	0	0	5000	1	+	-16	5	Cue10.jpg	-16	5	Target10.jpg	-16
20	2023-04-20	12:26:53	12:43:55	12:43:55:696	33	3	Reminder_Baseline_CSp	valence	0	5	0	0	37	0	3736	1	I found these images to be...	-16	0	0	0	0	0	0
20	2023-04-20	12:26:53	12:44:00	12:44:00:164	33	4	Reminder_Baseline_CSp	expectancy	0	1500	0	0	45	0	5432	1	When you saw the <b>object-scene</b>,   to what <b>degree (0-100%)</b> did you expect the <b>unpleasant sound to occur</b>?	-9	0	0	0	0	0	0
20	2023-04-20	12:26:53	12:44:03	12:44:03:162	34	1	PracticeItems_NoThink	fixation	0	5	1500	0	0	1	1495	1	+	-14	0	0	0	0	0	0
20	2023-04-20	12:26:53	12:44:08	12:44:08:180	34	2	PracticeItems_NoThink	PracticeItems_NoThink	0	5	0	0	0	0	5000	1	+	-13	2	Cue40.jpg	-13	2	Target40.jpg	-13
20	2023-04-20	12:26:53	12:44:13	12:44:13:014	34	3	PracticeItems_NoThink	valence	0	5	0	0	35	0	4805	1	I found these images to be...	-16	0	0	0	0	0	0
20	2023-04-20	12:26:53	12:44:18	12:44:18:681	34	4	PracticeItems_NoThink	expectancy	0	1000	0	0	57	0	4618	1	When you saw the <b>object-scene</b>,   to what <b>degree (0-100%)</b> did you expect the <b>unpleasant sound to occur</b>?	-10	0	0	0	0	0	0
20	2023-04-20	12:26:53	12:44:19	12:44:19:180	35	1	Reminder_Objects_CSm	fixation	0	5	500	0	0	1	495	1	+	-15	0	0	0	0	0	0
20	2023-04-20	12:26:53	12:44:24	12:44:24:198	35	2	Reminder_Objects_CSm	Objects_CSm	0	5	0	0	0	0	5000	1	Object7.jpg	-16	0	0	0	0	0	0
20	2023-04-20	12:26:53	12:44:33	12:44:33:465	35	3	Reminder_Objects_CSm	expectancy_object	0	1000	0	0	30	0	8235	1	When you saw the <b>object</b>,   to what <b>degree (0-100%)</b> did you expect the <b>unpleasant sound to occur</b>?	-16	0	0	0	0	0	0
20	2023-04-20	12:26:53	12:44:35	12:44:35:464	36	1	Reminder_NoThink_CSp	fixation	0	5	1000	0	0	1	995	1	+	-14	0	0	0	0	0	0
20	2023-04-20	12:26:53	12:44:40	12:44:40:485	36	2	Reminder_NoThink_CSp	NoThink_CSp	0	5	0	0	0	0	5000	1	+	-14	2	Cue32.jpg	-14	2	Target32.jpg	-14
20	2023-04-20	12:26:53	12:44:45	12:44:45:149	36	3	Reminder_NoThink_CSp	valence	0	5	0	0	29	0	5646	1	I found these images to be...	-16	0	0	0	0	0	0
20	2023-04-20	12:26:53	12:44:50	12:44:50:299	36	4	Reminder_NoThink_CSp	expectancy	0	500	0	0	79	0	5083	1	When you saw the <b>object-scene</b>,   to what <b>degree (0-100%)</b> did you expect the <b>unpleasant sound to occur</b>?	-9	0	0	0	0	0	0
20	2023-04-20	12:26:53	12:44:52	12:44:52:281	37	1	Reminder_Objects_CSm	fixation	0	5	1500	0	0	1	1495	1	+	-15	0	0	0	0	0	0
20	2023-04-20	12:26:53	12:44:57	12:44:57:300	37	2	Reminder_Objects_CSm	Objects_CSm	0	5	0	0	0	0	5000	3	Object4.jpg	-14	0	0	0	0	0	0
20	2023-04-20	12:26:53	12:45:04	12:45:04:683	37	3	Reminder_Objects_CSm	expectancy_object	0	1500	0	0	34	0	6356	1	When you saw the <b>object</b>,   to what <b>degree (0-100%)</b> did you expect the <b>unpleasant sound to occur</b>?	-9	0	0	0	0	0	0
20	2023-04-20	12:26:53	12:45:06	12:45:06:682	38	1	Reminder_Objects_CSp	fixation	0	5	500	0	0	1	495	1	+	-14	0	0	0	0	0	0
20	2023-04-20	12:26:53	12:45:11	12:45:11:700	38	2	Reminder_Objects_CSp	Objects_CSp	0	5	0	0	0	0	5000	4	Object1.jpg	-14	0	0	0	0	0	0
20	2023-04-20	12:26:53	12:45:15	12:45:15:617	38	3	Reminder_Objects_CSp	expectancy_object	0	1000	0	0	33	0	3884	1	When you saw the <b>object</b>,   to what <b>degree (0-100%)</b> did you expect the <b>unpleasant sound to occur</b>?	-16	0	0	0	0	0	0
20	2023-04-20	12:26:53	12:45:17	12:45:17:616	39	1	Reminder_Think_CSm	fixation	0	5	1000	0	0	1	995	1	+	-15	0	0	0	0	0	0
20	2023-04-20	12:26:53	12:45:22	12:45:22:635	39	2	Reminder_Think_CSm	Think_CSm	0	5	0	0	0	0	5000	1	+	-14	3	Cue12.jpg	-14	3	Target12.jpg	-14
20	2023-04-20	12:26:53	12:45:25	12:45:25:118	39	3	Reminder_Think_CSm	valence	0	5	0	0	33	0	3462	1	I found these images to be...	-16	0	0	0	0	0	0
20	2023-04-20	12:26:53	12:45:29	12:45:29:652	39	4	Reminder_Think_CSm	expectancy	0	1500	0	0	64	0	3466	1	When you saw the <b>object-scene</b>,   to what <b>degree (0-100%)</b> did you expect the <b>unpleasant sound to occur</b>?	-9	0	0	0	0	0	0
20	2023-04-20	12:26:53	12:45:32	12:45:32:634	40	1	Reminder_Think_CSm	fixation	0	5	1500	0	0	1	1495	1	+	-15	0	0	0	0	0	0
20	2023-04-20	12:26:53	12:45:37	12:45:37:652	40	2	Reminder_Think_CSm	Think_CSm	0	5	0	0	0	0	5000	1	+	-14	5	Cue34.jpg	-14	5	Target34.jpg	-14
20	2023-04-20	12:26:53	12:45:42	12:45:42:169	40	3	Reminder_Think_CSm	valence	0	5	0	0	29	0	5493	1	I found these images to be...	-16	0	0	0	0	0	0
20	2023-04-20	12:26:53	12:45:47	12:45:47:019	40	4	Reminder_Think_CSm	expectancy	0	500	0	0	42	0	4807	1	When you saw the <b>object-scene</b>,   to what <b>degree (0-100%)</b> did you expect the <b>unpleasant sound to occur</b>?	-12	0	0	0	0	0	0
20	2023-04-20	12:26:53	12:45:49	12:45:49:518	41	1	Reminder_Baseline_CSm	fixation	0	5	1000	0	0	1	995	1	+	-15	0	0	0	0	0	0
20	2023-04-20	12:26:53	12:45:54	12:45:54:537	41	2	Reminder_Baseline_CSm	Baseline_CSm	0	5	0	0	0	0	5000	1	+	-14	4	Cue15.jpg	-14	4	Target15.jpg	-14
20	2023-04-20	12:26:53	12:45:58	12:45:58:720	41	3	Reminder_Baseline_CSm	valence	0	5	0	0	35	0	4152	1	I found these images to be...	-16	0	0	0	0	0	0
20	2023-04-20	12:26:53	12:46:02	12:46:02:454	41	4	Reminder_Baseline_CSm	expectancy	0	1500	0	0	58	0	3688	1	When you saw the <b>object-scene</b>,   to what <b>degree (0-100%)</b> did you expect the <b>unpleasant sound to occur</b>?	-10	0	0	0	0	0	0
20	2023-04-20	12:26:53	12:46:04	12:46:04:453	42	1	Reminder_Think_CSm	fixation	0	5	500	0	0	1	495	1	+	-15	0	0	0	0	0	0
20	2023-04-20	12:26:53	12:46:09	12:46:09:471	42	2	Reminder_Think_CSm	Think_CSm	0	5	0	0	0	0	5000	1	+	-13	1	Cue35.jpg	-13	1	Target35.jpg	-13
20	2023-04-20	12:26:53	12:46:15	12:46:15:521	42	3	Reminder_Think_CSm	valence	0	5	0	0	42	0	6026	1	I found these images to be...	-16	0	0	0	0	0	0
20	2023-04-20	12:26:53	12:46:19	12:46:19:305	42	4	Reminder_Think_CSm	expectancy	0	1000	0	0	44	0	4743	1	When you saw the <b>object-scene</b>,   to what <b>degree (0-100%)</b> did you expect the <b>unpleasant sound to occur</b>?	-10	0	0	0	0	0	0
20	2023-04-20	12:26:53	12:46:22	12:46:22:804	43	1	Reminder_Think_CSm	fixation	0	5	1500	0	0	1	1495	1	+	-15	0	0	0	0	0	0
20	2023-04-20	12:26:53	12:46:27	12:46:27:822	43	2	Reminder_Think_CSm	Think_CSm	0	5	0	0	0	0	5000	1	+	-13	6	Cue24.jpg	-13	6	Target24.jpg	-13
20	2023-04-20	12:26:53	12:46:30	12:46:30:905	43	3	Reminder_Think_CSm	valence	0	5	0	0	40	0	3059	1	I found these images to be...	-16	0	0	0	0	0	0
20	2023-04-20	12:26:53	12:46:32	12:46:32:905	43	4	Reminder_Think_CSm	expectancy	0	1500	0	0	55	0	1951	1	When you saw the <b>object-scene</b>,   to what <b>degree (0-100%)</b> did you expect the <b>unpleasant sound to occur</b>?	-9	0	0	0	0	0	0
20	2023-04-20	12:26:53	12:46:35	12:46:35:404	44	1	Reminder_NoThink_CSp	fixation	0	5	1000	0	0	1	995	1	+	-15	0	0	0	0	0	0
20	2023-04-20	12:26:53	12:46:40	12:46:40:423	44	2	Reminder_NoThink_CSp	NoThink_CSp	0	5	0	0	0	0	5000	1	+	-12	4	Cue7.jpg	-12	4	Target7.jpg	-12
20	2023-04-20	12:26:53	12:46:44	12:46:44:889	44	3	Reminder_NoThink_CSp	valence	0	5	0	0	23	0	4442	1	I found these images to be...	-16	0	0	0	0	0	0
20	2023-04-20	12:26:53	12:46:50	12:46:50:740	44	4	Reminder_NoThink_CSp	expectancy	0	1000	0	0	62	0	5815	1	When you saw the <b>object-scene</b>,   to what <b>degree (0-100%)</b> did you expect the <b>unpleasant sound to occur</b>?	-10	0	0	0	0	0	0
20	2023-04-20	12:26:53	12:46:52	12:46:52:239	45	1	Reminder_Think_CSp	fixation	0	5	1500	0	0	1	1495	1	+	-14	0	0	0	0	0	0
20	2023-04-20	12:26:53	12:46:57	12:46:57:257	45	2	Reminder_Think_CSp	Think_CSp	0	5	0	0	0	0	5000	1	+	-12	4	Cue5.jpg	-12	4	Target5.jpg	-12
20	2023-04-20	12:26:53	12:47:00	12:47:00:024	45	3	Reminder_Think_CSp	valence	0	5	0	0	39	0	2735	1	I found these images to be...	-16	0	0	0	0	0	0
20	2023-04-20	12:26:53	12:47:02	12:47:02:174	45	4	Reminder_Think_CSp	expectancy	0	500	0	0	63	0	2104	1	When you saw the <b>object-scene</b>,   to what <b>degree (0-100%)</b> did you expect the <b>unpleasant sound to occur</b>?	-12	0	0	0	0	0	0
20	2023-04-20	12:26:53	12:47:03	12:47:03:173	46	1	Reminder_Baseline_CSp	fixation	0	5	500	0	0	1	495	1	+	-15	0	0	0	0	0	0
20	2023-04-20	12:26:53	12:47:08	12:47:08:194	46	2	Reminder_Baseline_CSp	Baseline_CSp	0	5	0	0	0	0	5000	1	+	-16	3	Cue4.jpg	-16	3	Target4.jpg	-16
20	2023-04-20	12:26:53	12:47:12	12:47:12:141	46	3	Reminder_Baseline_CSp	valence	0	5	0	0	40	0	3922	1	I found these images to be...	-16	0	0	0	0	0	0
20	2023-04-20	12:26:53	12:47:21	12:47:21:842	46	4	Reminder_Baseline_CSp	expectancy	0	500	0	0	45	0	8651	1	When you saw the <b>object-scene</b>,   to what <b>degree (0-100%)</b> did you expect the <b>unpleasant sound to occur</b>?	0	0	0	0	0	0	0
20	2023-04-20	12:26:53	12:47:23	12:47:23:840	47	1	Reminder_Think_CSm	fixation	0	5	1500	0	0	1	1495	1	+	-15	0	0	0	0	0	0
20	2023-04-20	12:26:53	12:47:28	12:47:28:859	47	2	Reminder_Think_CSm	Think_CSm	0	5	0	0	0	0	5000	1	+	-13	2	Cue22.jpg	-13	2	Target22.jpg	-13
20	2023-04-20	12:26:53	12:47:31	12:47:31:992	47	3	Reminder_Think_CSm	valence	0	5	0	0	37	0	3101	1	I found these images to be...	-11	0	0	0	0	0	0
20	2023-04-20	12:26:53	12:47:34	12:47:34:476	47	4	Reminder_Think_CSm	expectancy	0	1500	0	0	40	0	2416	1	When you saw the <b>object-scene</b>,   to what <b>degree (0-100%)</b> did you expect the <b>unpleasant sound to occur</b>?	-9	0	0	0	0	0	0
20	2023-04-20	12:26:53	12:47:36	12:47:36:458	48	1	Reminder_NoThink_CSm	fixation	0	5	500	0	0	1	495	1	+	-15	0	0	0	0	0	0
20	2023-04-20	12:26:53	12:47:41	12:47:41:476	48	2	Reminder_NoThink_CSm	NoThink_CSm	0	5	0	0	0	0	5000	1	+	-14	4	Cue2.jpg	-14	4	Target2.jpg	-14
20	2023-04-20	12:26:53	12:47:45	12:47:45:593	48	3	Reminder_NoThink_CSm	valence	0	5	0	0	19	0	4085	1	I found these images to be...	-16	0	0	0	0	0	0
20	2023-04-20	12:26:53	12:47:48	12:47:48:127	48	4	Reminder_NoThink_CSm	expectancy	0	1000	0	0	61	0	3495	1	When you saw the <b>object-scene</b>,   to what <b>degree (0-100%)</b> did you expect the <b>unpleasant sound to occur</b>?	-9	0	0	0	0	0	0
20	2023-04-20	12:26:53	12:47:50	12:47:50:126	49	1	Reminder_Think_CSm	fixation	0	5	1000	0	0	1	995	1	+	-14	0	0	0	0	0	0
20	2023-04-20	12:26:53	12:47:55	12:47:55:145	49	2	Reminder_Think_CSm	Think_CSm	0	5	0	0	0	0	5000	1	+	-13	4	Cue17.jpg	-13	4	Target17.jpg	-13
20	2023-04-20	12:26:53	12:47:59	12:47:59:527	49	3	Reminder_Think_CSm	valence	0	5	0	0	40	0	3353	1	I found these images to be...	-16	0	0	0	0	0	0
20	2023-04-20	12:26:53	12:48:02	12:48:02:361	49	4	Reminder_Think_CSm	expectancy	0	1500	0	0	58	0	2761	1	When you saw the <b>object-scene</b>,   to what <b>degree (0-100%)</b> did you expect the <b>unpleasant sound to occur</b>?	0	0	0	0	0	0	0
20	2023-04-20	12:26:53	12:52:37	12:52:37:505	2	1	Practice_NoThink	fixation	0	5	1500	0	0	1	1495	1	+	-9	0	0	0	0	0	0
20	2023-04-20	12:26:53	12:52:38	12:52:38:518	2	2	Practice_NoThink	NoThink	0	5	0	0	0	0	1000	1	DON'T THINK	-16	0	0	0	0	0	0
20	2023-04-20	12:26:53	12:52:43	12:52:43:535	2	3	Practice_NoThink	NoThinkCue	0	5	0	0	0	1	5000	2	Cue40.jpg	-16	0	0	0	0	0	0
20	2023-04-20	12:26:53	12:52:45	12:52:45:411	2	4	Practice_NoThink	Intrusion	0	1000	3000	0	3	1	1841	1	How <b>often</b> did you <b>think</b> about the <b>scene</b>?   <center><br><b>NEVER (1)    BRIEFLY (2)   OFTEN (3) </b>	-14	0	0	0	0	0	0
20	2023-04-20	12:26:53	12:52:46	12:52:46:039	3	1	Practice_NoThink	fixation	0	5	500	0	0	1	495	1	+	-8	0	0	0	0	0	0
20	2023-04-20	12:26:53	12:52:47	12:52:47:052	3	2	Practice_NoThink	NoThink	0	5	0	0	0	0	1000	1	DON'T THINK	-16	0	0	0	0	0	0
20	2023-04-20	12:26:53	12:52:52	12:52:52:069	3	3	Practice_NoThink	NoThinkCue	0	5	0	0	0	1	5000	1	Cue39.jpg	-16	0	0	0	0	0	0
20	2023-04-20	12:26:53	12:52:55	12:52:55:575	3	4	Practice_NoThink	Intrusion	0	500	3000	0	0	0	2500	1	How <b>often</b> did you <b>think</b> about the <b>scene</b>?   <center><br><b>NEVER (1)    BRIEFLY (2)   OFTEN (3) </b>	-16	0	0	0	0	0	0
20	2023-04-20	12:26:53	12:52:56	12:52:56:072	4	1	Practice_Think	fixation	0	5	1000	0	0	1	995	1	+	-8	0	0	0	0	0	0
20	2023-04-20	12:26:53	12:52:57	12:52:57:086	4	2	Practice_Think	Think	0	5	0	0	0	0	1000	1	THINK	-16	0	0	0	0	0	0
20	2023-04-20	12:26:53	12:53:02	12:53:02:103	4	3	Practice_Think	ThinkCue	0	5	0	0	0	1	5000	1	Cue37.jpg	-16	0	0	0	0	0	0
20	2023-04-20	12:26:53	12:53:04	12:53:04:609	4	4	Practice_Think	Intrusion	0	1500	3000	0	0	0	1500	1	How <b>often</b> did you <b>think</b> about the <b>scene</b>?   <center><br><b>NEVER (1)    BRIEFLY (2)   OFTEN (3) </b>	-16	0	0	0	0	0	0
20	2023-04-20	12:26:53	12:53:07	12:53:07:606	5	1	Practice_Think	fixation	0	5	1500	0	0	1	1495	1	+	-8	0	0	0	0	0	0
20	2023-04-20	12:26:53	12:53:08	12:53:08:620	5	2	Practice_Think	Think	0	5	0	0	0	0	1000	1	THINK	-16	0	0	0	0	0	0
20	2023-04-20	12:26:53	12:53:13	12:53:13:637	5	3	Practice_Think	ThinkCue	0	5	0	0	0	1	5000	2	Cue38.jpg	-16	0	0	0	0	0	0
20	2023-04-20	12:26:53	12:53:13	12:53:13:922	5	4	Practice_Think	Intrusion	0	500	3000	0	4	1	268	1	How <b>often</b> did you <b>think</b> about the <b>scene</b>?   <center><br><b>NEVER (1)    BRIEFLY (2)   OFTEN (3) </b>	-16	0	0	0	0	0	0
20	2023-04-20	12:26:53	12:56:24	12:56:24:914	6	1	Practice_Betweenblocks1	Practice_Betweenblocks1	0	5	0	0	57	1	188243	1	<center><br><br><br><br>This is the end of the first practice round. <br><br>There will be 2 more practice rounds.  <br><br> Please await further instruction from the experimenter.	-16	0	0	0	0	0	0
20	2023-04-20	12:26:53	12:56:25	12:56:25:416	7	1	Practice_Think	fixation	0	5	500	0	0	1	495	1	+	-8	0	0	0	0	0	0
20	2023-04-20	12:26:53	12:56:26	12:56:26:431	7	2	Practice_Think	Think	0	5	0	0	0	0	1000	1	THINK	-16	0	0	0	0	0	0
20	2023-04-20	12:26:53	12:56:31	12:56:31:448	7	3	Practice_Think	ThinkCue	0	5	0	0	0	1	5000	1	Cue37.jpg	-16	0	0	0	0	0	0
20	2023-04-20	12:26:53	12:56:32	12:56:32:818	7	4	Practice_Think	Intrusion	0	1000	3000	0	4	1	1353	1	How <b>often</b> did you <b>think</b> about the <b>scene</b>?   <center><br><b>NEVER (1)    BRIEFLY (2)   OFTEN (3) </b>	-16	0	0	0	0	0	0
20	2023-04-20	12:26:53	12:56:35	12:56:35:452	8	1	Practice_NoThink	fixation	0	5	1000	0	0	1	995	1	+	-9	0	0	0	0	0	0
20	2023-04-20	12:26:53	12:56:36	12:56:36:466	8	2	Practice_NoThink	NoThink	0	5	0	0	0	0	1000	1	DON'T THINK	-16	0	0	0	0	0	0
20	2023-04-20	12:26:53	12:56:41	12:56:41:482	8	3	Practice_NoThink	NoThinkCue	0	5	0	0	0	1	5000	2	Cue40.jpg	-16	0	0	0	0	0	0
20	2023-04-20	12:26:53	12:56:42	12:56:42:990	8	4	Practice_NoThink	Intrusion	0	1500	3000	0	0	0	1500	1	How <b>often</b> did you <b>think</b> about the <b>scene</b>?   <center><br><b>NEVER (1)    BRIEFLY (2)   OFTEN (3) </b>	-16	0	0	0	0	0	0
20	2023-04-20	12:26:53	12:56:45	12:56:45:986	9	1	Practice_NoThink	fixation	0	5	1500	0	0	1	1495	1	+	-8	0	0	0	0	0	0
20	2023-04-20	12:26:53	12:56:46	12:56:46:00	9	2	Practice_NoThink	NoThink	0	5	0	0	0	0	1000	1	DON'T THINK	-16	0	0	0	0	0	0
20	2023-04-20	12:26:53	12:56:51	12:56:51:016	9	3	Practice_NoThink	NoThinkCue	0	5	0	0	0	1	5000	1	Cue39.jpg	-16	0	0	0	0	0	0
20	2023-04-20	12:26:53	12:56:52	12:56:52:685	9	4	Practice_NoThink	Intrusion	0	1000	3000	0	2	1	641	1	How <b>often</b> did you <b>think</b> about the <b>scene</b>?   <center><br><b>NEVER (1)    BRIEFLY (2)   OFTEN (3) </b>	-16	0	0	0	0	0	0
20	2023-04-20	12:26:53	12:56:55	12:56:55:520	10	1	Practice_Think	fixation	0	5	500	0	0	1	495	1	+	-9	0	0	0	0	0	0
20	2023-04-20	12:26:53	12:56:56	12:56:56:533	10	2	Practice_Think	Think	0	5	0	0	0	0	1000	1	THINK	-16	0	0	0	0	0	0
20	2023-04-20	12:26:53	12:57:01	12:57:01:550	10	3	Practice_Think	ThinkCue	0	5	0	0	0	1	5000	2	Cue38.jpg	-16	0	0	0	0	0	0
20	2023-04-20	12:26:53	12:57:02	12:57:02:435	10	4	Practice_Think	Intrusion	0	1500	3000	0	4	1	867	1	How <b>often</b> did you <b>think</b> about the <b>scene</b>?   <center><br><b>NEVER (1)    BRIEFLY (2)   OFTEN (3) </b>	-16	0	0	0	0	0	0
20	2023-04-20	12:26:53	12:58:35	12:58:35:538	11	1	Practice_Betweenblocks2	Practice_Betweenblocks2	0	5	0	0	57	1	90954	1	<center><br><br><br><br>This is the end of the second practice round. <br><br>There will be 1 more practice round.  <br><br> Please await further instruction from the experimenter.	-16	0	0	0	0	0	0
20	2023-04-20	12:26:53	12:58:36	12:58:36:538	12	1	Practice_NoThink	fixation	0	5	1000	0	0	1	995	1	+	-8	0	0	0	0	0	0
20	2023-04-20	12:26:53	12:58:37	12:58:37:556	12	2	Practice_NoThink	NoThink	0	5	0	0	0	0	1000	1	DON'T THINK	-16	0	0	0	0	0	0
20	2023-04-20	12:26:53	12:58:42	12:58:42:573	12	3	Practice_NoThink	NoThinkCue	0	5	0	0	0	1	5000	2	Cue40.jpg	-16	0	0	0	0	0	0
20	2023-04-20	12:26:53	12:58:43	12:58:43:426	12	4	Practice_NoThink	Intrusion	0	500	3000	0	2	1	836	1	How <b>often</b> did you <b>think</b> about the <b>scene</b>?   <center><br><b>NEVER (1)    BRIEFLY (2)   OFTEN (3) </b>	-16	0	0	0	0	0	0
20	2023-04-20	12:26:53	12:58:46	12:58:46:577	13	1	Practice_NoThink	fixation	0	5	1000	0	0	1	995	1	+	-8	0	0	0	0	0	0
20	2023-04-20	12:26:53	12:58:47	12:58:47:590	13	2	Practice_NoThink	NoThink	0	5	0	0	0	0	1000	1	DON'T THINK	-16	0	0	0	0	0	0
20	2023-04-20	12:26:53	12:58:52	12:58:52:607	13	3	Practice_NoThink	NoThinkCue	0	5	0	0	0	1	5000	1	Cue39.jpg	-16	0	0	0	0	0	0
20	2023-04-20	12:26:53	12:58:53	12:58:53:538	13	4	Practice_NoThink	Intrusion	0	500	3000	0	2	1	914	1	How <b>often</b> did you <b>think</b> about the <b>scene</b>?   <center><br><b>NEVER (1)    BRIEFLY (2)   OFTEN (3) </b>	-16	0	0	0	0	0	0
20	2023-04-20	12:26:53	12:58:56	12:58:56:111	14	1	Practice_Think	fixation	0	5	1500	0	0	1	1495	1	+	-8	0	0	0	0	0	0
20	2023-04-20	12:26:53	12:58:57	12:58:57:124	14	2	Practice_Think	Think	0	5	0	0	0	0	1000	1	THINK	-16	0	0	0	0	0	0
20	2023-04-20	12:26:53	12:59:02	12:59:02:141	14	3	Practice_Think	ThinkCue	0	5	0	0	0	1	5000	1	Cue37.jpg	-16	0	0	0	0	0	0
20	2023-04-20	12:26:53	12:59:04	12:59:04:226	14	4	Practice_Think	Intrusion	0	1000	3000	0	4	1	1068	1	How <b>often</b> did you <b>think</b> about the <b>scene</b>?   <center><br><b>NEVER (1)    BRIEFLY (2)   OFTEN (3) </b>	-16	0	0	0	0	0	0
20	2023-04-20	12:26:53	12:59:06	12:59:06:645	15	1	Practice_Think	fixation	0	5	500	0	0	1	495	1	+	-9	0	0	0	0	0	0
20	2023-04-20	12:26:53	12:59:07	12:59:07:658	15	2	Practice_Think	Think	0	5	0	0	0	0	1000	1	THINK	-16	0	0	0	0	0	0
20	2023-04-20	12:26:53	12:59:12	12:59:12:675	15	3	Practice_Think	ThinkCue	0	5	0	0	0	1	5000	2	Cue38.jpg	-16	0	0	0	0	0	0
20	2023-04-20	12:26:53	12:59:12	12:59:12:978	15	4	Practice_Think	Intrusion	0	1500	3000	0	4	1	286	1	How <b>often</b> did you <b>think</b> about the <b>scene</b>?   <center><br><b>NEVER (1)    BRIEFLY (2)   OFTEN (3) </b>	-16	0	0	0	0	0	0
20	2023-04-20	12:26:53	12:59:35	12:59:35:970	1	1	countdown	instructions	0	5	0	0	57	0	3561	1	<center><br><br> <b>WATCH CALLIBRATION</b>.                <br><br><br><br>In a couple of seconds a <b>countdown</b> will start that counts down from 3 to 1,       <br><br>after which the screen will show the instruction <b>PRESS BUTTON</b>.       <br><br><b>As soon as you see that screen</b>, you must shortly press the button on your watch.       <br><br> <br><br> Press SPACE  to continue.	-2	0	0	0	0	0	0
20	2023-04-20	12:26:53	12:59:36	12:59:36:993	1	2	countdown	countdown_3	0	5	0	0	0	0	1000	1	3	-8	0	0	0	0	0	0
20	2023-04-20	12:26:53	12:59:37	12:59:37:09	1	3	countdown	countdown_2	0	5	0	0	0	0	1000	1	2	-16	0	0	0	0	0	0
20	2023-04-20	12:26:53	12:59:38	12:59:38:026	1	4	countdown	countdown_1	0	5	0	0	0	0	1000	1	1	-16	0	0	0	0	0	0
20	2023-04-20	12:26:53	12:59:39	12:59:39:043	1	5	countdown	press_button	0	5	0	0	0	0	1000	1	PRESS BUTTON NOW	-16	0	0	0	0	0	0
20	2023-04-20	12:26:53	13:00:40	13:00:40:503	2	1	TNT_Think_CSp	fixation	0	5	1500	0	0	1	1495	1	+	-7	0	0	0	0	0	0
20	2023-04-20	12:26:53	13:00:41	13:00:41:518	2	2	TNT_Think_CSp	Think	0	5	0	0	0	0	1000	1	THINK	-16	0	0	0	0	0	0
20	2023-04-20	12:26:53	13:00:46	13:00:46:534	2	3	TNT_Think_CSp	TNT_Think_CSp	0	5	0	0	0	0	5000	1	Cue13.jpg	-16	0	0	0	0	0	0
20	2023-04-20	12:26:53	13:00:46	13:00:46:041	2	4	TNT_Think_CSp	Intrusion	0	500	3000	0	4	1	490	1	How <b>often</b> did you <b>think</b> about the <b>scene</b>?   <center><br><b>NEVER (1)    BRIEFLY (2)   OFTEN (3) </b>	-16	0	0	0	0	0	0
20	2023-04-20	12:26:53	13:00:50	13:00:50:538	3	1	TNT_Object_CSp	fixation	0	5	1000	0	0	1	995	1	+	-9	0	0	0	0	0	0
20	2023-04-20	12:26:53	13:00:51	13:00:51:551	3	2	TNT_Object_CSp	Passive	0	5	0	0	0	0	1000	1	VIEW	-16	0	0	0	0	0	0
20	2023-04-20	12:26:53	13:00:56	13:00:56:568	3	3	TNT_Object_CSp	TNT_Object_CSp	0	500	0	0	0	0	5000	2	Object2.jpg	-16	0	0	0	0	0	0
20	2023-04-20	12:26:53	13:00:57	13:00:57:568	4	1	TNT_Think_CSp	fixation	0	5	500	0	0	1	495	1	+	-7	0	0	0	0	0	0
20	2023-04-20	12:26:53	13:00:58	13:00:58:585	4	2	TNT_Think_CSp	Think	0	5	0	0	0	0	1000	1	THINK	-16	0	0	0	0	0	0
20	2023-04-20	12:26:53	13:01:03	13:01:03:602	4	3	TNT_Think_CSp	TNT_Think_CSp	0	5	0	0	0	0	5000	6	Cue31.jpg	-16	0	0	0	0	0	0
20	2023-04-20	12:26:53	13:01:04	13:01:04:353	4	4	TNT_Think_CSp	Intrusion	0	1500	3000	0	4	1	734	1	How <b>often</b> did you <b>think</b> about the <b>scene</b>?   <center><br><b>NEVER (1)    BRIEFLY (2)   OFTEN (3) </b>	-16	0	0	0	0	0	0
20	2023-04-20	12:26:53	13:01:08	13:01:08:106	5	1	TNT_Think_CSm	fixation	0	5	1500	0	0	1	1495	1	+	-16	0	0	0	0	0	0
20	2023-04-20	12:26:53	13:01:09	13:01:09:119	5	2	TNT_Think_CSm	Think	0	5	0	0	0	0	1000	1	THINK	-16	0	0	0	0	0	0
20	2023-04-20	12:26:53	13:01:14	13:01:14:136	5	3	TNT_Think_CSm	TNT_Think_CSm	0	5	0	0	0	0	5000	2	Cue22.jpg	-16	0	0	0	0	0	0
20	2023-04-20	12:26:53	13:01:14	13:01:14:801	5	4	TNT_Think_CSm	Intrusion	0	1000	3000	0	4	1	648	1	How <b>often</b> did you <b>think</b> about the <b>scene</b>?   <center><br><b>NEVER (1)    BRIEFLY (2)   OFTEN (3) </b>	-16	0	0	0	0	0	0
20	2023-04-20	12:26:53	13:01:18	13:01:18:140	6	1	TNT_Think_CSp	fixation	0	5	1000	0	0	1	995	1	+	-9	0	0	0	0	0	0
20	2023-04-20	12:26:53	13:01:19	13:01:19:153	6	2	TNT_Think_CSp	Think	0	5	0	0	0	0	1000	1	THINK	-16	0	0	0	0	0	0
20	2023-04-20	12:26:53	13:01:24	13:01:24:170	6	3	TNT_Think_CSp	TNT_Think_CSp	0	5	0	0	0	0	5000	4	Cue5.jpg	-16	0	0	0	0	0	0
20	2023-04-20	12:26:53	13:01:24	13:01:24:433	6	4	TNT_Think_CSp	Intrusion	0	1500	3000	0	4	1	246	1	How <b>often</b> did you <b>think</b> about the <b>scene</b>?   <center><br><b>NEVER (1)    BRIEFLY (2)   OFTEN (3) </b>	-16	0	0	0	0	0	0
20	2023-04-20	12:26:53	13:01:27	13:01:27:674	7	1	TNT_Object_CSm	fixation	0	5	500	0	0	1	495	1	+	-8	0	0	0	0	0	0
20	2023-04-20	12:26:53	13:01:28	13:01:28:687	7	2	TNT_Object_CSm	Passive	0	5	0	0	0	0	1000	1	VIEW	-16	0	0	0	0	0	0
20	2023-04-20	12:26:53	13:01:33	13:01:33:704	7	3	TNT_Object_CSm	TNT_Object_CSm	0	1500	0	0	0	0	5000	1	Object7.jpg	-16	0	0	0	0	0	0
20	2023-04-20	12:26:53	13:01:36	13:01:36:703	8	1	TNT_Object_CSm	fixation	0	5	1500	0	0	1	1495	1	+	-8	0	0	0	0	0	0
20	2023-04-20	12:26:53	13:01:37	13:01:37:721	8	2	TNT_Object_CSm	Passive	0	5	0	0	0	0	1000	1	VIEW	-16	0	0	0	0	0	0
20	2023-04-20	12:26:53	13:01:42	13:01:42:738	8	3	TNT_Object_CSm	TNT_Object_CSm	0	1000	0	0	0	0	5000	4	Object5.jpg	-16	0	0	0	0	0	0
20	2023-04-20	12:26:53	13:01:44	13:01:44:237	9	1	TNT_NoThink_CSm	fixation	0	5	500	0	0	1	495	1	+	-9	0	0	0	0	0	0
20	2023-04-20	12:26:53	13:01:45	13:01:45:255	9	2	TNT_NoThink_CSm	NoThink	0	5	0	0	0	0	1000	1	DON'T THINK	-16	0	0	0	0	0	0
20	2023-04-20	12:26:53	13:01:50	13:01:50:271	9	3	TNT_NoThink_CSm	TNT_NoThink_CSm	0	5	0	0	0	0	5000	3	Cue16.jpg	-16	0	0	0	0	0	0
20	2023-04-20	12:26:53	13:01:51	13:01:51:393	9	4	TNT_NoThink_CSm	Intrusion	0	1000	3000	0	2	1	1105	1	How <b>often</b> did you <b>think</b> about the <b>scene</b>?   <center><br><b>NEVER (1)    BRIEFLY (2)   OFTEN (3) </b>	-16	0	0	0	0	0	0
20	2023-04-20	12:26:53	13:01:54	13:01:54:275	10	1	TNT_Think_CSm	fixation	0	5	1000	0	0	1	995	1	+	-9	0	0	0	0	0	0
20	2023-04-20	12:26:53	13:01:55	13:01:55:289	10	2	TNT_Think_CSm	Think	0	5	0	0	0	0	1000	1	THINK	-16	0	0	0	0	0	0
20	2023-04-20	12:26:53	13:02:00	13:02:00:305	10	3	TNT_Think_CSm	TNT_Think_CSm	0	5	0	0	0	0	5000	6	Cue24.jpg	-16	0	0	0	0	0	0
20	2023-04-20	12:26:53	13:02:00	13:02:00:801	10	4	TNT_Think_CSm	Intrusion	0	500	3000	0	3	1	479	1	How <b>often</b> did you <b>think</b> about the <b>scene</b>?   <center><br><b>NEVER (1)    BRIEFLY (2)   OFTEN (3) </b>	-16	0	0	0	0	0	0
20	2023-04-20	12:26:53	13:02:03	13:02:03:809	11	1	TNT_NoThink_CSp	fixation	0	5	500	0	0	1	495	1	+	-9	0	0	0	0	0	0
20	2023-04-20	12:26:53	13:02:04	13:02:04:823	11	2	TNT_NoThink_CSp	NoThink	0	5	0	0	0	0	1000	1	DON'T THINK	-16	0	0	0	0	0	0
20	2023-04-20	12:26:53	13:02:09	13:02:09:839	11	3	TNT_NoThink_CSp	TNT_NoThink_CSp	0	5	0	0	0	0	5000	3	Cue14.jpg	-16	0	0	0	0	0	0
20	2023-04-20	12:26:53	13:02:10	13:02:10:849	11	4	TNT_NoThink_CSp	Intrusion	0	500	3000	0	2	1	993	1	How <b>often</b> did you <b>think</b> about the <b>scene</b>?   <center><br><b>NEVER (1)    BRIEFLY (2)   OFTEN (3) </b>	-16	0	0	0	0	0	0
20	2023-04-20	12:26:53	13:02:13	13:02:13:843	12	1	TNT_Object_CSp	fixation	0	5	1000	0	0	1	995	1	+	-9	0	0	0	0	0	0
20	2023-04-20	12:26:53	13:02:14	13:02:14:856	12	2	TNT_Object_CSp	Passive	0	5	0	0	0	0	1000	1	VIEW	-16	0	0	0	0	0	0
20	2023-04-20	12:26:53	13:02:19	13:02:19:873	12	3	TNT_Object_CSp	TNT_Object_CSp	0	1000	0	0	0	0	5000	4	Object1.jpg	-16	0	0	0	0	0	0
20	2023-04-20	12:26:53	13:02:22	13:02:22:372	13	1	TNT_Object_CSp	fixation	0	5	1500	0	0	1	1495	1	+	-8	0	0	0	0	0	0
20	2023-04-20	12:26:53	13:02:23	13:02:23:390	13	2	TNT_Object_CSp	Passive	0	5	0	0	0	0	1000	1	VIEW	-16	0	0	0	0	0	0
20	2023-04-20	12:26:53	13:02:28	13:02:28:407	13	3	TNT_Object_CSp	TNT_Object_CSp	0	1500	0	0	0	0	5000	1	Object3.jpg	-16	0	0	0	0	0	0
20	2023-04-20	12:26:53	13:02:30	13:02:30:405	14	1	TNT_Think_CSm	fixation	0	5	500	0	0	1	495	1	+	-2	0	0	0	0	0	0
20	2023-04-20	12:26:53	13:02:31	13:02:31:424	14	2	TNT_Think_CSm	Think	0	5	0	0	0	0	1000	1	THINK	-16	0	0	0	0	0	0
20	2023-04-20	12:26:53	13:02:36	13:02:36:441	14	3	TNT_Think_CSm	TNT_Think_CSm	0	5	0	0	0	0	5000	3	Cue12.jpg	-16	0	0	0	0	0	0
20	2023-04-20	12:26:53	13:02:37	13:02:37:265	14	4	TNT_Think_CSm	Intrusion	0	1000	3000	0	4	1	807	1	How <b>often</b> did you <b>think</b> about the <b>scene</b>?   <center><br><b>NEVER (1)    BRIEFLY (2)   OFTEN (3) </b>	-16	0	0	0	0	0	0
20	2023-04-20	12:26:53	13:02:40	13:02:40:944	15	1	TNT_NoThink_CSm	fixation	0	5	1500	0	0	1	1495	1	+	-9	0	0	0	0	0	0
20	2023-04-20	12:26:53	13:02:41	13:02:41:958	15	2	TNT_NoThink_CSm	NoThink	0	5	0	0	0	0	1000	1	DON'T THINK	-16	0	0	0	0	0	0
20	2023-04-20	12:26:53	13:02:46	13:02:46:975	15	3	TNT_NoThink_CSm	TNT_NoThink_CSm	0	5	0	0	0	0	5000	5	Cue36.jpg	-16	0	0	0	0	0	0
20	2023-04-20	12:26:53	13:02:47	13:02:47:601	15	4	TNT_NoThink_CSm	Intrusion	0	1500	3000	0	2	1	609	1	How <b>often</b> did you <b>think</b> about the <b>scene</b>?   <center><br><b>NEVER (1)    BRIEFLY (2)   OFTEN (3) </b>	-16	0	0	0	0	0	0
20	2023-04-20	12:26:53	13:02:50	13:02:50:978	16	1	TNT_NoThink_CSp	fixation	0	5	1000	0	0	1	995	1	+	-9	0	0	0	0	0	0
20	2023-04-20	12:26:53	13:02:51	13:02:51:992	16	2	TNT_NoThink_CSp	NoThink	0	5	0	0	0	0	1000	1	DON'T THINK	-16	0	0	0	0	0	0
20	2023-04-20	12:26:53	13:02:56	13:02:56:09	16	3	TNT_NoThink_CSp	TNT_NoThink_CSp	0	5	0	0	0	0	5000	1	Cue18.jpg	-16	0	0	0	0	0	0
20	2023-04-20	12:26:53	13:02:57	13:02:57:985	16	4	TNT_NoThink_CSp	Intrusion	0	1500	3000	0	3	1	959	1	How <b>often</b> did you <b>think</b> about the <b>scene</b>?   <center><br><b>NEVER (1)    BRIEFLY (2)   OFTEN (3) </b>	-16	0	0	0	0	0	0
20	2023-04-20	12:26:53	13:03:00	13:03:00:013	17	1	TNT_Think_CSp	fixation	0	5	1000	0	0	1	995	1	+	-9	0	0	0	0	0	0
20	2023-04-20	12:26:53	13:03:01	13:03:01:026	17	2	TNT_Think_CSp	Think	0	5	0	0	0	0	1000	1	THINK	-16	0	0	0	0	0	0
20	2023-04-20	12:26:53	13:03:06	13:03:06:043	17	3	TNT_Think_CSp	TNT_Think_CSp	0	5	0	0	0	0	5000	2	Cue8.jpg	-16	0	0	0	0	0	0
20	2023-04-20	12:26:53	13:03:07	13:03:07:457	17	4	TNT_Think_CSp	Intrusion	0	1000	3000	0	4	1	397	1	How <b>often</b> did you <b>think</b> about the <b>scene</b>?   <center><br><b>NEVER (1)    BRIEFLY (2)   OFTEN (3) </b>	-16	0	0	0	0	0	0
20	2023-04-20	12:26:53	13:03:10	13:03:10:547	18	1	TNT_Think_CSp	fixation	0	5	500	0	0	1	495	1	+	-9	0	0	0	0	0	0
20	2023-04-20	12:26:53	13:03:11	13:03:11:560	18	2	TNT_Think_CSp	Think	0	5	0	0	0	0	1000	1	THINK	-16	0	0	0	0	0	0
20	2023-04-20	12:26:53	13:03:16	13:03:16:577	18	3	TNT_Think_CSp	TNT_Think_CSp	0	5	0	0	0	0	5000	3	Cue19.jpg	-16	0	0	0	0	0	0
20	2023-04-20	12:26:53	13:03:17	13:03:17:297	18	4	TNT_Think_CSp	Intrusion	0	500	3000	0	4	1	702	1	How <b>often</b> did you <b>think</b> about the <b>scene</b>?   <center><br><b>NEVER (1)    BRIEFLY (2)   OFTEN (3) </b>	-16	0	0	0	0	0	0
20	2023-04-20	12:26:53	13:03:21	13:03:21:081	19	1	TNT_NoThink_CSm	fixation	0	5	1500	0	0	1	1495	1	+	-9	0	0	0	0	0	0
20	2023-04-20	12:26:53	13:03:22	13:03:22:094	19	2	TNT_NoThink_CSm	NoThink	0	5	0	0	0	0	1000	1	DON'T THINK	-16	0	0	0	0	0	0
20	2023-04-20	12:26:53	13:03:27	13:03:27:110	19	3	TNT_NoThink_CSm	TNT_NoThink_CSm	0	5	0	0	0	0	5000	2	Cue33.jpg	-16	0	0	0	0	0	0
20	2023-04-20	12:26:53	13:03:28	13:03:28:145	19	4	TNT_NoThink_CSm	Intrusion	0	500	3000	0	2	1	1017	1	How <b>often</b> did you <b>think</b> about the <b>scene</b>?   <center><br><b>NEVER (1)    BRIEFLY (2)   OFTEN (3) </b>	-16	0	0	0	0	0	0
20	2023-04-20	12:26:53	13:03:31	13:03:31:614	20	1	TNT_NoThink_CSm	fixation	0	5	1500	0	0	1	1495	1	+	-2	0	0	0	0	0	0
20	2023-04-20	12:26:53	13:03:32	13:03:32:628	20	2	TNT_NoThink_CSm	NoThink	0	5	0	0	0	0	1000	1	DON'T THINK	-16	0	0	0	0	0	0
20	2023-04-20	12:26:53	13:03:37	13:03:37:644	20	3	TNT_NoThink_CSm	TNT_NoThink_CSm	0	5	0	0	0	0	5000	4	Cue2.jpg	-16	0	0	0	0	0	0
20	2023-04-20	12:26:53	13:03:38	13:03:38:497	20	4	TNT_NoThink_CSm	Intrusion	0	1000	3000	0	2	1	835	1	How <b>often</b> did you <b>think</b> about the <b>scene</b>?   <center><br><b>NEVER (1)    BRIEFLY (2)   OFTEN (3) </b>	-16	0	0	0	0	0	0
20	2023-04-20	12:26:53	13:03:41	13:03:41:148	21	1	TNT_NoThink_CSp	fixation	0	5	500	0	0	1	495	1	+	-9	0	0	0	0	0	0
20	2023-04-20	12:26:53	13:03:42	13:03:42:162	21	2	TNT_NoThink_CSp	NoThink	0	5	0	0	0	0	1000	1	DON'T THINK	-16	0	0	0	0	0	0
20	2023-04-20	12:26:53	13:03:47	13:03:47:178	21	3	TNT_NoThink_CSp	TNT_NoThink_CSp	0	5	0	0	0	0	5000	4	Cue7.jpg	-16	0	0	0	0	0	0
20	2023-04-20	12:26:53	13:03:47	13:03:47:729	21	4	TNT_NoThink_CSp	Intrusion	0	1500	3000	0	3	1	534	1	How <b>often</b> did you <b>think</b> about the <b>scene</b>?   <center><br><b>NEVER (1)    BRIEFLY (2)   OFTEN (3) </b>	-16	0	0	0	0	0	0
20	2023-04-20	12:26:53	13:03:51	13:03:51:182	22	1	TNT_NoThink_CSm	fixation	0	5	1000	0	0	1	995	1	+	-9	0	0	0	0	0	0
20	2023-04-20	12:26:53	13:03:52	13:03:52:195	22	2	TNT_NoThink_CSm	NoThink	0	5	0	0	0	0	1000	1	DON'T THINK	-16	0	0	0	0	0	0
20	2023-04-20	12:26:53	13:03:57	13:03:57:212	22	3	TNT_NoThink_CSm	TNT_NoThink_CSm	0	5	0	0	0	0	5000	6	Cue23.jpg	-16	0	0	0	0	0	0
20	2023-04-20	12:26:53	13:03:57	13:03:57:745	22	4	TNT_NoThink_CSm	Intrusion	0	1000	3000	0	2	1	515	1	How <b>often</b> did you <b>think</b> about the <b>scene</b>?   <center><br><b>NEVER (1)    BRIEFLY (2)   OFTEN (3) </b>	-16	0	0	0	0	0	0
20	2023-04-20	12:26:53	13:04:01	13:04:01:716	23	1	TNT_NoThink_CSp	fixation	0	5	1500	0	0	1	1495	1	+	-5	0	0	0	0	0	0
20	2023-04-20	12:26:53	13:04:02	13:04:02:730	23	2	TNT_NoThink_CSp	NoThink	0	5	0	0	0	0	1000	1	DON'T THINK	-16	0	0	0	0	0	0
20	2023-04-20	12:26:53	13:04:07	13:04:07:746	23	3	TNT_NoThink_CSp	TNT_NoThink_CSp	0	5	0	0	0	0	5000	6	Cue6.jpg	-16	0	0	0	0	0	0
20	2023-04-20	12:26:53	13:04:08	13:04:08:289	23	4	TNT_NoThink_CSp	Intrusion	0	1500	3000	0	2	1	525	1	How <b>often</b> did you <b>think</b> about the <b>scene</b>?   <center><br><b>NEVER (1)    BRIEFLY (2)   OFTEN (3) </b>	-16	0	0	0	0	0	0
20	2023-04-20	12:26:53	13:04:11	13:04:11:250	24	1	TNT_Think_CSm	fixation	0	5	500	0	0	1	495	1	+	-9	0	0	0	0	0	0
20	2023-04-20	12:26:53	13:04:12	13:04:12:263	24	2	TNT_Think_CSm	Think	0	5	0	0	0	0	1000	1	THINK	-16	0	0	0	0	0	0
20	2023-04-20	12:26:53	13:04:17	13:04:17:280	24	3	TNT_Think_CSm	TNT_Think_CSm	0	5	0	0	0	0	5000	1	Cue35.jpg	-16	0	0	0	0	0	0
20	2023-04-20	12:26:53	13:04:17	13:04:17:937	24	4	TNT_Think_CSm	Intrusion	0	500	3000	0	4	1	639	1	How <b>often</b> did you <b>think</b> about the <b>scene</b>?   <center><br><b>NEVER (1)    BRIEFLY (2)   OFTEN (3) </b>	-16	0	0	0	0	0	0
20	2023-04-20	12:26:53	13:04:21	13:04:21:284	25	1	TNT_Object_CSm	fixation	0	5	1000	0	0	1	995	1	+	-8	0	0	0	0	0	0
20	2023-04-20	12:26:53	13:04:22	13:04:22:297	25	2	TNT_Object_CSm	Passive	0	5	0	0	0	0	1000	1	VIEW	-16	0	0	0	0	0	0
20	2023-04-20	12:26:53	13:04:27	13:04:27:314	25	3	TNT_Object_CSm	TNT_Object_CSm	0	500	0	0	0	0	5000	3	Object4.jpg	-16	0	0	0	0	0	0
20	2023-04-20	12:26:53	13:04:29	13:04:29:312	26	1	TNT_Think_CSm	fixation	0	5	1500	0	0	1	1495	1	+	-9	0	0	0	0	0	0
20	2023-04-20	12:26:53	13:04:30	13:04:30:331	26	2	TNT_Think_CSm	Think	0	5	0	0	0	0	1000	1	THINK	-16	0	0	0	0	0	0
20	2023-04-20	12:26:53	13:04:35	13:04:35:348	26	3	TNT_Think_CSm	TNT_Think_CSm	0	5	0	0	0	0	5000	5	Cue34.jpg	-16	0	0	0	0	0	0
20	2023-04-20	12:26:53	13:04:36	13:04:36:065	26	4	TNT_Think_CSm	Intrusion	0	1500	3000	0	4	1	699	1	How <b>often</b> did you <b>think</b> about the <b>scene</b>?   <center><br><b>NEVER (1)    BRIEFLY (2)   OFTEN (3) </b>	-16	0	0	0	0	0	0
20	2023-04-20	12:26:53	13:04:39	13:04:39:351	27	1	TNT_NoThink_CSp	fixation	0	5	1000	0	0	1	995	1	+	-7	0	0	0	0	0	0
20	2023-04-20	12:26:53	13:04:40	13:04:40:365	27	2	TNT_NoThink_CSp	NoThink	0	5	0	0	0	0	1000	1	DON'T THINK	-16	0	0	0	0	0	0
20	2023-04-20	12:26:53	13:04:45	13:04:45:382	27	3	TNT_NoThink_CSp	TNT_NoThink_CSp	0	5	0	0	0	0	5000	2	Cue32.jpg	-16	0	0	0	0	0	0
20	2023-04-20	12:26:53	13:04:46	13:04:46:529	27	4	TNT_NoThink_CSp	Intrusion	0	1000	3000	0	2	1	1129	1	How <b>often</b> did you <b>think</b> about the <b>scene</b>?   <center><br><b>NEVER (1)    BRIEFLY (2)   OFTEN (3) </b>	-16	0	0	0	0	0	0
20	2023-04-20	12:26:53	13:04:48	13:04:48:886	28	1	TNT_Object_CSm	fixation	0	5	500	0	0	1	495	1	+	-9	0	0	0	0	0	0
20	2023-04-20	12:26:53	13:04:49	13:04:49:899	28	2	TNT_Object_CSm	Passive	0	5	0	0	0	0	1000	1	VIEW	-16	0	0	0	0	0	0
20	2023-04-20	12:26:53	13:04:54	13:04:54:916	28	3	TNT_Object_CSm	TNT_Object_CSm	0	500	0	0	0	0	5000	2	Object8.jpg	-16	0	0	0	0	0	0
20	2023-04-20	12:26:53	13:04:55	13:04:55:915	29	1	TNT_NoThink_CSm	fixation	0	5	500	0	0	1	495	1	+	-8	0	0	0	0	0	0
20	2023-04-20	12:26:53	13:04:56	13:04:56:933	29	2	TNT_NoThink_CSm	NoThink	0	5	0	0	0	0	1000	1	DON'T THINK	-16	0	0	0	0	0	0
20	2023-04-20	12:26:53	13:05:01	13:05:01:949	29	3	TNT_NoThink_CSm	TNT_NoThink_CSm	0	5	0	0	0	0	5000	1	Cue3.jpg	-16	0	0	0	0	0	0
20	2023-04-20	12:26:53	13:05:02	13:05:02:961	29	4	TNT_NoThink_CSm	Intrusion	0	500	3000	0	2	1	994	1	How <b>often</b> did you <b>think</b> about the <b>scene</b>?   <center><br><b>NEVER (1)    BRIEFLY (2)   OFTEN (3) </b>	-16	0	0	0	0	0	0
20	2023-04-20	12:26:53	13:05:06	13:05:06:453	30	1	TNT_Think_CSm	fixation	0	5	1500	0	0	1	1495	1	+	-8	0	0	0	0	0	0
20	2023-04-20	12:26:53	13:05:07	13:05:07:467	30	2	TNT_Think_CSm	Think	0	5	0	0	0	0	1000	1	THINK	-16	0	0	0	0	0	0
20	2023-04-20	12:26:53	13:05:12	13:05:12:483	30	3	TNT_Think_CSm	TNT_Think_CSm	0	5	0	0	0	0	5000	4	Cue17.jpg	-16	0	0	0	0	0	0
20	2023-04-20	12:26:53	13:05:13	13:05:13:217	30	4	TNT_Think_CSm	Intrusion	0	1500	3000	0	4	1	716	1	How <b>often</b> did you <b>think</b> about the <b>scene</b>?   <center><br><b>NEVER (1)    BRIEFLY (2)   OFTEN (3) </b>	-16	0	0	0	0	0	0
20	2023-04-20	12:26:53	13:05:16	13:05:16:487	31	1	TNT_NoThink_CSp	fixation	0	5	1000	0	0	1	995	1	+	-2	0	0	0	0	0	0
20	2023-04-20	12:26:53	13:05:17	13:05:17:501	31	2	TNT_NoThink_CSp	NoThink	0	5	0	0	0	0	1000	1	DON'T THINK	-16	0	0	0	0	0	0
20	2023-04-20	12:26:53	13:05:22	13:05:22:517	31	3	TNT_NoThink_CSp	TNT_NoThink_CSp	0	5	0	0	0	0	5000	5	Cue1.jpg	-16	0	0	0	0	0	0
20	2023-04-20	12:26:53	13:05:24	13:05:24:337	31	4	TNT_NoThink_CSp	Intrusion	0	500	3000	0	2	1	1802	1	How <b>often</b> did you <b>think</b> about the <b>scene</b>?   <center><br><b>NEVER (1)    BRIEFLY (2)   OFTEN (3) </b>	-16	0	0	0	0	0	0
20	2023-04-20	12:26:53	13:05:25	13:05:25:021	32	1	TNT_Object_CSp	fixation	0	5	500	0	0	1	495	1	+	-9	0	0	0	0	0	0
20	2023-04-20	12:26:53	13:05:26	13:05:26:034	32	2	TNT_Object_CSp	Passive	0	5	0	0	0	0	1000	1	VIEW	-16	0	0	0	0	0	0
20	2023-04-20	12:26:53	13:05:31	13:05:31:051	32	3	TNT_Object_CSp	TNT_Object_CSp	0	500	0	0	0	0	5000	3	Object6.jpg	-16	0	0	0	0	0	0
20	2023-04-20	12:26:53	13:05:33	13:05:33:550	33	1	TNT_Think_CSp	fixation	0	5	1000	0	0	1	995	1	+	-9	0	0	0	0	0	0
20	2023-04-20	12:26:53	13:05:34	13:05:34:568	33	2	TNT_Think_CSp	Think	0	5	0	0	0	0	1000	1	THINK	-16	0	0	0	0	0	0
20	2023-04-20	12:26:53	13:05:39	13:05:39:585	33	3	TNT_Think_CSp	TNT_Think_CSp	0	5	0	0	0	0	5000	5	Cue29.jpg	-16	0	0	0	0	0	0
20	2023-04-20	12:26:53	13:05:40	13:05:40:065	33	4	TNT_Think_CSp	Intrusion	0	1000	3000	0	4	1	462	1	How <b>often</b> did you <b>think</b> about the <b>scene</b>?   <center><br><b>NEVER (1)    BRIEFLY (2)   OFTEN (3) </b>	-16	0	0	0	0	0	0
20	2023-04-20	12:26:53	13:05:44	13:05:44:088	34	1	TNT_Think_CSp	fixation	0	5	1500	0	0	1	1495	1	+	-8	0	0	0	0	0	0
20	2023-04-20	12:26:53	13:05:45	13:05:45:102	34	2	TNT_Think_CSp	Think	0	5	0	0	0	0	1000	1	THINK	-16	0	0	0	0	0	0
20	2023-04-20	12:26:53	13:05:50	13:05:50:119	34	3	TNT_Think_CSp	TNT_Think_CSp	0	5	0	0	0	0	5000	1	Cue13.jpg	-16	0	0	0	0	0	0
20	2023-04-20	12:26:53	13:05:50	13:05:50:321	34	4	TNT_Think_CSp	Intrusion	0	1000	3000	0	4	1	184	1	How <b>often</b> did you <b>think</b> about the <b>scene</b>?   <center><br><b>NEVER (1)    BRIEFLY (2)   OFTEN (3) </b>	-16	0	0	0	0	0	0
20	2023-04-20	12:26:53	13:05:53	13:05:53:622	35	1	TNT_Object_CSp	fixation	0	5	500	0	0	1	495	1	+	-6	0	0	0	0	0	0
20	2023-04-20	12:26:53	13:05:54	13:05:54:636	35	2	TNT_Object_CSp	Passive	0	5	0	0	0	0	1000	1	VIEW	-16	0	0	0	0	0	0
20	2023-04-20	12:26:53	13:05:59	13:05:59:653	35	3	TNT_Object_CSp	TNT_Object_CSp	0	1000	0	0	0	0	5000	2	Object2.jpg	-16	0	0	0	0	0	0
20	2023-04-20	12:26:53	13:06:01	13:06:01:652	36	1	TNT_Think_CSm	fixation	0	5	1000	0	0	1	995	1	+	-9	0	0	0	0	0	0
20	2023-04-20	12:26:53	13:06:02	13:06:02:670	36	2	TNT_Think_CSm	Think	0	5	0	0	0	0	1000	1	THINK	-16	0	0	0	0	0	0
20	2023-04-20	12:26:53	13:06:07	13:06:07:687	36	3	TNT_Think_CSm	TNT_Think_CSm	0	5	0	0	0	0	5000	2	Cue22.jpg	-16	0	0	0	0	0	0
20	2023-04-20	12:26:53	13:06:07	13:06:07:033	36	4	TNT_Think_CSm	Intrusion	0	1500	3000	0	4	1	328	1	How <b>often</b> did you <b>think</b> about the <b>scene</b>?   <center><br><b>NEVER (1)    BRIEFLY (2)   OFTEN (3) </b>	-16	0	0	0	0	0	0
20	2023-04-20	12:26:53	13:06:12	13:06:12:191	37	1	TNT_Think_CSm	fixation	0	5	1500	0	0	1	1495	1	+	-16	0	0	0	0	0	0
20	2023-04-20	12:26:53	13:06:13	13:06:13:204	37	2	TNT_Think_CSm	Think	0	5	0	0	0	0	1000	1	THINK	-16	0	0	0	0	0	0
20	2023-04-20	12:26:53	13:06:18	13:06:18:220	37	3	TNT_Think_CSm	TNT_Think_CSm	0	5	0	0	0	0	5000	4	Cue17.jpg	-16	0	0	0	0	0	0
20	2023-04-20	12:26:53	13:06:18	13:06:18:641	37	4	TNT_Think_CSm	Intrusion	0	500	3000	0	4	1	402	1	How <b>often</b> did you <b>think</b> about the <b>scene</b>?   <center><br><b>NEVER (1)    BRIEFLY (2)   OFTEN (3) </b>	-16	0	0	0	0	0	0
20	2023-04-20	12:26:53	13:06:22	13:06:22:224	38	1	TNT_Object_CSm	fixation	0	5	1000	0	0	1	995	1	+	-8	0	0	0	0	0	0
20	2023-04-20	12:26:53	13:06:23	13:06:23:237	38	2	TNT_Object_CSm	Passive	0	5	0	0	0	0	1000	1	VIEW	-16	0	0	0	0	0	0
20	2023-04-20	12:26:53	13:06:28	13:06:28:255	38	3	TNT_Object_CSm	TNT_Object_CSm	0	1000	0	0	0	0	5000	3	Object4.jpg	-16	0	0	0	0	0	0
20	2023-04-20	12:26:53	13:06:29	13:06:29:754	39	1	TNT_Object_CSm	fixation	0	5	500	0	0	1	495	1	+	-9	0	0	0	0	0	0
20	2023-04-20	12:26:53	13:06:30	13:06:30:771	39	2	TNT_Object_CSm	Passive	0	5	0	0	0	0	1000	1	VIEW	-16	0	0	0	0	0	0
20	2023-04-20	12:26:53	13:06:35	13:06:35:788	39	3	TNT_Object_CSm	TNT_Object_CSm	0	1500	0	0	0	0	5000	2	Object8.jpg	-16	0	0	0	0	0	0
20	2023-04-20	12:26:53	13:06:38	13:06:38:788	40	1	TNT_Think_CSp	fixation	0	5	1500	0	0	1	1495	1	+	-9	0	0	0	0	0	0
20	2023-04-20	12:26:53	13:06:39	13:06:39:805	40	2	TNT_Think_CSp	Think	0	5	0	0	0	0	1000	1	THINK	-16	0	0	0	0	0	0
20	2023-04-20	12:26:53	13:06:44	13:06:44:822	40	3	TNT_Think_CSp	TNT_Think_CSp	0	5	0	0	0	0	5000	2	Cue8.jpg	-16	0	0	0	0	0	0
20	2023-04-20	12:26:53	13:06:45	13:06:45:345	40	4	TNT_Think_CSp	Intrusion	0	1500	3000	0	4	1	505	1	How <b>often</b> did you <b>think</b> about the <b>scene</b>?   <center><br><b>NEVER (1)    BRIEFLY (2)   OFTEN (3) </b>	-16	0	0	0	0	0	0
20	2023-04-20	12:26:53	13:06:49	13:06:49:326	41	1	TNT_Think_CSm	fixation	0	5	1500	0	0	1	1495	1	+	-16	0	0	0	0	0	0
20	2023-04-20	12:26:53	13:06:50	13:06:50:339	41	2	TNT_Think_CSm	Think	0	5	0	0	0	0	1000	1	THINK	-16	0	0	0	0	0	0
20	2023-04-20	12:26:53	13:06:55	13:06:55:356	41	3	TNT_Think_CSm	TNT_Think_CSm	0	5	0	0	0	0	5000	3	Cue12.jpg	-16	0	0	0	0	0	0
20	2023-04-20	12:26:53	13:06:55	13:06:55:873	41	4	TNT_Think_CSm	Intrusion	0	1000	3000	0	4	1	499	1	How <b>often</b> did you <b>think</b> about the <b>scene</b>?   <center><br><b>NEVER (1)    BRIEFLY (2)   OFTEN (3) </b>	-16	0	0	0	0	0	0
20	2023-04-20	12:26:53	13:06:58	13:06:58:860	42	1	TNT_NoThink_CSm	fixation	0	5	500	0	0	1	495	1	+	-8	0	0	0	0	0	0
20	2023-04-20	12:26:53	13:06:59	13:06:59:873	42	2	TNT_NoThink_CSm	NoThink	0	5	0	0	0	0	1000	1	DON'T THINK	-16	0	0	0	0	0	0
20	2023-04-20	12:26:53	13:07:04	13:07:04:890	42	3	TNT_NoThink_CSm	TNT_NoThink_CSm	0	5	0	0	0	0	5000	6	Cue23.jpg	-16	0	0	0	0	0	0
20	2023-04-20	12:26:53	13:07:05	13:07:05:281	42	4	TNT_NoThink_CSm	Intrusion	0	500	3000	0	2	1	373	1	How <b>often</b> did you <b>think</b> about the <b>scene</b>?   <center><br><b>NEVER (1)    BRIEFLY (2)   OFTEN (3) </b>	-16	0	0	0	0	0	0
20	2023-04-20	12:26:53	13:07:08	13:07:08:893	43	1	TNT_NoThink_CSp	fixation	0	5	1000	0	0	1	995	1	+	-8	0	0	0	0	0	0
20	2023-04-20	12:26:53	13:07:09	13:07:09:907	43	2	TNT_NoThink_CSp	NoThink	0	5	0	0	0	0	1000	1	DON'T THINK	-16	0	0	0	0	0	0
20	2023-04-20	12:26:53	13:07:14	13:07:14:924	43	3	TNT_NoThink_CSp	TNT_NoThink_CSp	0	5	0	0	0	0	5000	3	Cue14.jpg	-16	0	0	0	0	0	0
20	2023-04-20	12:26:53	13:07:16	13:07:16:176	43	4	TNT_NoThink_CSp	Intrusion	0	1000	3000	0	2	1	1235	1	How <b>often</b> did you <b>think</b> about the <b>scene</b>?   <center><br><b>NEVER (1)    BRIEFLY (2)   OFTEN (3) </b>	-16	0	0	0	0	0	0
20	2023-04-20	12:26:53	13:07:18	13:07:18:427	44	1	TNT_Think_CSp	fixation	0	5	500	0	0	1	495	1	+	-8	0	0	0	0	0	0
20	2023-04-20	12:26:53	13:07:19	13:07:19:441	44	2	TNT_Think_CSp	Think	0	5	0	0	0	0	1000	1	THINK	-16	0	0	0	0	0	0
20	2023-04-20	12:26:53	13:07:24	13:07:24:458	44	3	TNT_Think_CSp	TNT_Think_CSp	0	5	0	0	0	0	5000	6	Cue31.jpg	-16	0	0	0	0	0	0
20	2023-04-20	12:26:53	13:07:25	13:07:25:344	44	4	TNT_Think_CSp	Intrusion	0	500	3000	0	4	1	869	1	How <b>often</b> did you <b>think</b> about the <b>scene</b>?   <center><br><b>NEVER (1)    BRIEFLY (2)   OFTEN (3) </b>	-16	0	0	0	0	0	0
20	2023-04-20	12:26:53	13:07:28	13:07:28:462	45	1	TNT_Think_CSm	fixation	0	5	1000	0	0	1	995	1	+	-8	0	0	0	0	0	0
20	2023-04-20	12:26:53	13:07:29	13:07:29:475	45	2	TNT_Think_CSm	Think	0	5	0	0	0	0	1000	1	THINK	-16	0	0	0	0	0	0
20	2023-04-20	12:26:53	13:07:34	13:07:34:492	45	3	TNT_Think_CSm	TNT_Think_CSm	0	5	0	0	0	0	5000	6	Cue24.jpg	-16	0	0	0	0	0	0
20	2023-04-20	12:26:53	13:07:35	13:07:35:489	45	4	TNT_Think_CSm	Intrusion	0	1500	3000	0	4	1	979	1	How <b>often</b> did you <b>think</b> about the <b>scene</b>?   <center><br><b>NEVER (1)    BRIEFLY (2)   OFTEN (3) </b>	-16	0	0	0	0	0	0
20	2023-04-20	12:26:53	13:07:38	13:07:38:996	46	1	TNT_NoThink_CSp	fixation	0	5	1500	0	0	1	1495	1	+	-16	0	0	0	0	0	0
20	2023-04-20	12:26:53	13:07:39	13:07:39:09	46	2	TNT_NoThink_CSp	NoThink	0	5	0	0	0	0	1000	1	DON'T THINK	-16	0	0	0	0	0	0
20	2023-04-20	12:26:53	13:07:44	13:07:44:026	46	3	TNT_NoThink_CSp	TNT_NoThink_CSp	0	5	0	0	0	0	5000	5	Cue1.jpg	-16	0	0	0	0	0	0
20	2023-04-20	12:26:53	13:07:45	13:07:45:904	46	4	TNT_NoThink_CSp	Intrusion	0	1500	3000	0	2	1	861	1	How <b>often</b> did you <b>think</b> about the <b>scene</b>?   <center><br><b>NEVER (1)    BRIEFLY (2)   OFTEN (3) </b>	-16	0	0	0	0	0	0
20	2023-04-20	12:26:53	13:07:49	13:07:49:530	47	1	TNT_Object_CSp	fixation	0	5	1500	0	0	1	1495	1	+	-9	0	0	0	0	0	0
20	2023-04-20	12:26:53	13:07:50	13:07:50:543	47	2	TNT_Object_CSp	Passive	0	5	0	0	0	0	1000	1	VIEW	-16	0	0	0	0	0	0
20	2023-04-20	12:26:53	13:07:55	13:07:55:559	47	3	TNT_Object_CSp	TNT_Object_CSp	0	1500	0	0	0	0	5000	1	Object3.jpg	-16	0	0	0	0	0	0
20	2023-04-20	12:26:53	13:07:57	13:07:57:559	48	1	TNT_Think_CSp	fixation	0	5	500	0	0	1	495	1	+	-9	0	0	0	0	0	0
20	2023-04-20	12:26:53	13:07:58	13:07:58:577	48	2	TNT_Think_CSp	Think	0	5	0	0	0	0	1000	1	THINK	-16	0	0	0	0	0	0
20	2023-04-20	12:26:53	13:08:03	13:08:03:593	48	3	TNT_Think_CSp	TNT_Think_CSp	0	5	0	0	0	0	5000	3	Cue19.jpg	-16	0	0	0	0	0	0
20	2023-04-20	12:26:53	13:08:04	13:08:04:560	48	4	TNT_Think_CSp	Intrusion	0	1000	3000	0	4	1	950	1	How <b>often</b> did you <b>think</b> about the <b>scene</b>?   <center><br><b>NEVER (1)    BRIEFLY (2)   OFTEN (3) </b>	-16	0	0	0	0	0	0
20	2023-04-20	12:26:53	13:08:07	13:08:07:597	49	1	TNT_NoThink_CSp	fixation	0	5	1000	0	0	1	995	1	+	-9	0	0	0	0	0	0
20	2023-04-20	12:26:53	13:08:08	13:08:08:611	49	2	TNT_NoThink_CSp	NoThink	0	5	0	0	0	0	1000	1	DON'T THINK	-16	0	0	0	0	0	0
20	2023-04-20	12:26:53	13:08:13	13:08:13:627	49	3	TNT_NoThink_CSp	TNT_NoThink_CSp	0	5	0	0	0	0	5000	6	Cue6.jpg	-16	0	0	0	0	0	0
20	2023-04-20	12:26:53	13:08:14	13:08:14:464	49	4	TNT_NoThink_CSp	Intrusion	0	500	3000	0	2	1	820	1	How <b>often</b> did you <b>think</b> about the <b>scene</b>?   <center><br><b>NEVER (1)    BRIEFLY (2)   OFTEN (3) </b>	-16	0	0	0	0	0	0
20	2023-04-20	12:26:53	13:08:18	13:08:18:131	50	1	TNT_Object_CSm	fixation	0	5	1500	0	0	1	1495	1	+	-9	0	0	0	0	0	0
20	2023-04-20	12:26:53	13:08:19	13:08:19:144	50	2	TNT_Object_CSm	Passive	0	5	0	0	0	0	1000	1	VIEW	-16	0	0	0	0	0	0
20	2023-04-20	12:26:53	13:08:24	13:08:24:161	50	3	TNT_Object_CSm	TNT_Object_CSm	0	1500	0	0	0	0	5000	4	Object5.jpg	-16	0	0	0	0	0	0
20	2023-04-20	12:26:53	13:08:26	13:08:26:660	51	1	TNT_NoThink_CSp	fixation	0	5	1000	0	0	1	995	1	+	-9	0	0	0	0	0	0
20	2023-04-20	12:26:53	13:08:27	13:08:27:679	51	2	TNT_NoThink_CSp	NoThink	0	5	0	0	0	0	1000	1	DON'T THINK	-16	0	0	0	0	0	0
20	2023-04-20	12:26:53	13:08:32	13:08:32:695	51	3	TNT_NoThink_CSp	TNT_NoThink_CSp	0	5	0	0	0	0	5000	1	Cue18.jpg	-16	0	0	0	0	0	0
20	2023-04-20	12:26:53	13:08:33	13:08:33:568	51	4	TNT_NoThink_CSp	Intrusion	0	1500	3000	0	2	1	856	1	How <b>often</b> did you <b>think</b> about the <b>scene</b>?   <center><br><b>NEVER (1)    BRIEFLY (2)   OFTEN (3) </b>	-16	0	0	0	0	0	0
20	2023-04-20	12:26:53	13:08:36	13:08:36:199	52	1	TNT_Think_CSp	fixation	0	5	500	0	0	1	495	1	+	-8	0	0	0	0	0	0
20	2023-04-20	12:26:53	13:08:37	13:08:37:212	52	2	TNT_Think_CSp	Think	0	5	0	0	0	0	1000	1	THINK	-16	0	0	0	0	0	0
20	2023-04-20	12:26:53	13:08:42	13:08:42:229	52	3	TNT_Think_CSp	TNT_Think_CSp	0	5	0	0	0	0	5000	4	Cue5.jpg	-16	0	0	0	0	0	0
20	2023-04-20	12:26:53	13:08:42	13:08:42:544	52	4	TNT_Think_CSp	Intrusion	0	1000	3000	0	4	1	298	1	How <b>often</b> did you <b>think</b> about the <b>scene</b>?   <center><br><b>NEVER (1)    BRIEFLY (2)   OFTEN (3) </b>	-16	0	0	0	0	0	0
20	2023-04-20	12:26:53	13:08:45	13:08:45:733	53	1	TNT_Think_CSm	fixation	0	5	500	0	0	1	495	1	+	-9	0	0	0	0	0	0
20	2023-04-20	12:26:53	13:08:46	13:08:46:746	53	2	TNT_Think_CSm	Think	0	5	0	0	0	0	1000	1	THINK	-16	0	0	0	0	0	0
20	2023-04-20	12:26:53	13:08:51	13:08:51:763	53	3	TNT_Think_CSm	TNT_Think_CSm	0	5	0	0	0	0	5000	1	Cue35.jpg	-16	0	0	0	0	0	0
20	2023-04-20	12:26:53	13:08:52	13:08:52:737	53	4	TNT_Think_CSm	Intrusion	0	500	3000	0	4	1	956	1	How <b>often</b> did you <b>think</b> about the <b>scene</b>?   <center><br><b>NEVER (1)    BRIEFLY (2)   OFTEN (3) </b>	-16	0	0	0	0	0	0
20	2023-04-20	12:26:53	13:08:56	13:08:56:266	54	1	TNT_NoThink_CSm	fixation	0	5	1500	0	0	1	1495	1	+	-9	0	0	0	0	0	0
20	2023-04-20	12:26:53	13:08:57	13:08:57:280	54	2	TNT_NoThink_CSm	NoThink	0	5	0	0	0	0	1000	1	DON'T THINK	-16	0	0	0	0	0	0
20	2023-04-20	12:26:53	13:09:02	13:09:02:297	54	3	TNT_NoThink_CSm	TNT_NoThink_CSm	0	5	0	0	0	0	5000	4	Cue2.jpg	-16	0	0	0	0	0	0
20	2023-04-20	12:26:53	13:09:02	13:09:02:040	54	4	TNT_NoThink_CSm	Intrusion	0	1500	3000	0	3	1	726	1	How <b>often</b> did you <b>think</b> about the <b>scene</b>?   <center><br><b>NEVER (1)    BRIEFLY (2)   OFTEN (3) </b>	-16	0	0	0	0	0	0
20	2023-04-20	12:26:53	13:09:06	13:09:06:300	55	1	TNT_NoThink_CSp	fixation	0	5	1000	0	0	1	995	1	+	-9	0	0	0	0	0	0
20	2023-04-20	12:26:53	13:09:07	13:09:07:314	55	2	TNT_NoThink_CSp	NoThink	0	5	0	0	0	0	1000	1	DON'T THINK	-16	0	0	0	0	0	0
20	2023-04-20	12:26:53	13:09:12	13:09:12:331	55	3	TNT_NoThink_CSp	TNT_NoThink_CSp	0	5	0	0	0	0	5000	2	Cue32.jpg	-16	0	0	0	0	0	0
20	2023-04-20	12:26:53	13:09:12	13:09:12:672	55	4	TNT_NoThink_CSp	Intrusion	0	500	3000	0	2	1	324	1	How <b>often</b> did you <b>think</b> about the <b>scene</b>?   <center><br><b>NEVER (1)    BRIEFLY (2)   OFTEN (3) </b>	-16	0	0	0	0	0	0
20	2023-04-20	12:26:53	13:09:16	13:09:16:335	56	1	TNT_NoThink_CSm	fixation	0	5	1000	0	0	1	995	1	+	-8	0	0	0	0	0	0
20	2023-04-20	12:26:53	13:09:17	13:09:17:348	56	2	TNT_NoThink_CSm	NoThink	0	5	0	0	0	0	1000	1	DON'T THINK	-16	0	0	0	0	0	0
20	2023-04-20	12:26:53	13:09:22	13:09:22:365	56	3	TNT_NoThink_CSm	TNT_NoThink_CSm	0	5	0	0	0	0	5000	3	Cue16.jpg	-16	0	0	0	0	0	0
20	2023-04-20	12:26:53	13:09:24	13:09:24:371	56	4	TNT_NoThink_CSm	Intrusion	0	1000	3000	0	0	0	2000	1	How <b>often</b> did you <b>think</b> about the <b>scene</b>?   <center><br><b>NEVER (1)    BRIEFLY (2)   OFTEN (3) </b>	-16	0	0	0	0	0	0
20	2023-04-20	12:26:53	13:09:26	13:09:26:869	57	1	TNT_NoThink_CSm	fixation	0	5	1500	0	0	1	1495	1	+	-8	0	0	0	0	0	0
20	2023-04-20	12:26:53	13:09:27	13:09:27:882	57	2	TNT_NoThink_CSm	NoThink	0	5	0	0	0	0	1000	1	DON'T THINK	-16	0	0	0	0	0	0
20	2023-04-20	12:26:53	13:09:32	13:09:32:899	57	3	TNT_NoThink_CSm	TNT_NoThink_CSm	0	5	0	0	0	0	5000	5	Cue36.jpg	-16	0	0	0	0	0	0
20	2023-04-20	12:26:53	13:09:33	13:09:33:280	57	4	TNT_NoThink_CSm	Intrusion	0	1000	3000	0	2	1	364	1	How <b>often</b> did you <b>think</b> about the <b>scene</b>?   <center><br><b>NEVER (1)    BRIEFLY (2)   OFTEN (3) </b>	-16	0	0	0	0	0	0
20	2023-04-20	12:26:53	13:09:36	13:09:36:403	58	1	TNT_NoThink_CSp	fixation	0	5	500	0	0	1	495	1	+	-8	0	0	0	0	0	0
20	2023-04-20	12:26:53	13:09:37	13:09:37:416	58	2	TNT_NoThink_CSp	NoThink	0	5	0	0	0	0	1000	1	DON'T THINK	-16	0	0	0	0	0	0
20	2023-04-20	12:26:53	13:09:42	13:09:42:432	58	3	TNT_NoThink_CSp	TNT_NoThink_CSp	0	5	0	0	0	0	5000	4	Cue7.jpg	-16	0	0	0	0	0	0
20	2023-04-20	12:26:53	13:09:43	13:09:43:088	58	4	TNT_NoThink_CSp	Intrusion	0	1500	3000	0	2	1	638	1	How <b>often</b> did you <b>think</b> about the <b>scene</b>?   <center><br><b>NEVER (1)    BRIEFLY (2)   OFTEN (3) </b>	-16	0	0	0	0	0	0
20	2023-04-20	12:26:53	13:09:46	13:09:46:936	59	1	TNT_NoThink_CSm	fixation	0	5	1500	0	0	1	1495	1	+	-16	0	0	0	0	0	0
20	2023-04-20	12:26:53	13:09:47	13:09:47:950	59	2	TNT_NoThink_CSm	NoThink	0	5	0	0	0	0	1000	1	DON'T THINK	-16	0	0	0	0	0	0
20	2023-04-20	12:26:53	13:09:52	13:09:52:966	59	3	TNT_NoThink_CSm	TNT_NoThink_CSm	0	5	0	0	0	0	5000	2	Cue33.jpg	-16	0	0	0	0	0	0
20	2023-04-20	12:26:53	13:09:53	13:09:53:016	59	4	TNT_NoThink_CSm	Intrusion	0	500	3000	0	2	1	1032	1	How <b>often</b> did you <b>think</b> about the <b>scene</b>?   <center><br><b>NEVER (1)    BRIEFLY (2)   OFTEN (3) </b>	-16	0	0	0	0	0	0
20	2023-04-20	12:26:53	13:09:56	13:09:56:970	60	1	TNT_Object_CSm	fixation	0	5	1000	0	0	1	995	1	+	-8	0	0	0	0	0	0
20	2023-04-20	12:26:53	13:09:57	13:09:57:983	60	2	TNT_Object_CSm	Passive	0	5	0	0	0	0	1000	1	VIEW	-16	0	0	0	0	0	0
20	2023-04-20	12:26:53	13:10:02	13:10:02:00	60	3	TNT_Object_CSm	TNT_Object_CSm	0	500	0	0	0	0	5000	1	Object7.jpg	-16	0	0	0	0	0	0
20	2023-04-20	12:26:53	13:10:03	13:10:03:00	61	1	TNT_Think_CSm	fixation	0	5	500	0	0	1	495	1	+	-7	0	0	0	0	0	0
20	2023-04-20	12:26:53	13:10:04	13:10:04:017	61	2	TNT_Think_CSm	Think	0	5	0	0	0	0	1000	1	THINK	-16	0	0	0	0	0	0
20	2023-04-20	12:26:53	13:10:09	13:10:09:034	61	3	TNT_Think_CSm	TNT_Think_CSm	0	5	0	0	0	0	5000	5	Cue34.jpg	-16	0	0	0	0	0	0
20	2023-04-20	12:26:53	13:10:11	13:10:11:542	61	4	TNT_Think_CSm	Intrusion	0	1500	3000	0	0	0	1500	1	How <b>often</b> did you <b>think</b> about the <b>scene</b>?   <center><br><b>NEVER (1)    BRIEFLY (2)   OFTEN (3) </b>	-16	0	0	0	0	0	0
20	2023-04-20	12:26:53	13:10:13	13:10:13:538	62	1	TNT_Object_CSp	fixation	0	5	500	0	0	1	495	1	+	-8	0	0	0	0	0	0
20	2023-04-20	12:26:53	13:10:14	13:10:14:551	62	2	TNT_Object_CSp	Passive	0	5	0	0	0	0	1000	1	VIEW	-16	0	0	0	0	0	0
20	2023-04-20	12:26:53	13:10:19	13:10:19:568	62	3	TNT_Object_CSp	TNT_Object_CSp	0	500	0	0	0	0	5000	4	Object1.jpg	-16	0	0	0	0	0	0
20	2023-04-20	12:26:53	13:10:21	13:10:21:066	63	1	TNT_NoThink_CSm	fixation	0	5	1000	0	0	1	995	1	+	-8	0	0	0	0	0	0
20	2023-04-20	12:26:53	13:10:22	13:10:22:085	63	2	TNT_NoThink_CSm	NoThink	0	5	0	0	0	0	1000	1	DON'T THINK	-16	0	0	0	0	0	0
20	2023-04-20	12:26:53	13:10:27	13:10:27:102	63	3	TNT_NoThink_CSm	TNT_NoThink_CSm	0	5	0	0	0	0	5000	1	Cue3.jpg	-16	0	0	0	0	0	0
20	2023-04-20	12:26:53	13:10:28	13:10:28:528	63	4	TNT_NoThink_CSm	Intrusion	0	1000	3000	0	2	1	1409	1	How <b>often</b> did you <b>think</b> about the <b>scene</b>?   <center><br><b>NEVER (1)    BRIEFLY (2)   OFTEN (3) </b>	-16	0	0	0	0	0	0
20	2023-04-20	12:26:53	13:10:31	13:10:31:606	64	1	TNT_Think_CSp	fixation	0	5	1500	0	0	1	1495	1	+	-8	0	0	0	0	0	0
20	2023-04-20	12:26:53	13:10:32	13:10:32:619	64	2	TNT_Think_CSp	Think	0	5	0	0	0	0	1000	1	THINK	-16	0	0	0	0	0	0
20	2023-04-20	12:26:53	13:10:37	13:10:37:636	64	3	TNT_Think_CSp	TNT_Think_CSp	0	5	0	0	0	0	5000	5	Cue29.jpg	-16	0	0	0	0	0	0
20	2023-04-20	12:26:53	13:10:38	13:10:38:304	64	4	TNT_Think_CSp	Intrusion	0	500	3000	0	4	1	651	1	How <b>often</b> did you <b>think</b> about the <b>scene</b>?   <center><br><b>NEVER (1)    BRIEFLY (2)   OFTEN (3) </b>	-16	0	0	0	0	0	0
20	2023-04-20	12:26:53	13:10:42	13:10:42:140	65	1	TNT_Object_CSp	fixation	0	5	1500	0	0	1	1495	1	+	-9	0	0	0	0	0	0
20	2023-04-20	12:26:53	13:10:43	13:10:43:153	65	2	TNT_Object_CSp	Passive	0	5	0	0	0	0	1000	1	VIEW	-16	0	0	0	0	0	0
20	2023-04-20	12:26:53	13:10:48	13:10:48:170	65	3	TNT_Object_CSp	TNT_Object_CSp	0	1000	0	0	0	0	5000	3	Object6.jpg	-16	0	0	0	0	0	0
20	2023-04-20	12:26:53	13:10:50	13:10:50:169	66	1	Expectancy_rating	fixation	0	5	1000	0	0	1	995	1	+	-8	0	0	0	0	0	0
20	2023-04-20	12:26:53	13:10:59	13:10:59:552	66	2	Expectancy_rating	expectancy_rating	0	1000	0	0	58	0	9334	1	When you saw the <b>object</b>,   to what <b>degree (0-100%)</b> did you expect the <b>unpleasant sound to occur</b>?	-16	35	Cue35.jpg	-16	0	0	0
20	2023-04-20	12:26:53	13:11:00	13:11:00:038	67	1	Expectancy_rating	fixation	0	5	500	0	0	1	495	1	+	-8	0	0	0	0	0	0
20	2023-04-20	12:26:53	13:11:04	13:11:04:935	67	2	Expectancy_rating	expectancy_rating	0	500	0	0	37	0	3875	1	When you saw the <b>object</b>,   to what <b>degree (0-100%)</b> did you expect the <b>unpleasant sound to occur</b>?	-16	44	Object4.jpg	-16	0	0	0
20	2023-04-20	12:26:53	13:11:06	13:11:06:934	68	1	Expectancy_rating	fixation	0	5	1500	0	0	1	1495	1	+	-15	0	0	0	0	0	0
20	2023-04-20	12:26:53	13:11:10	13:11:10:752	68	2	Expectancy_rating	expectancy_rating	0	1500	0	0	67	0	3789	1	When you saw the <b>object</b>,   to what <b>degree (0-100%)</b> did you expect the <b>unpleasant sound to occur</b>?	-9	46	Object6.jpg	-9	0	0	0
20	2023-04-20	12:26:53	13:11:13	13:11:13:251	69	1	Expectancy_rating	fixation	0	5	1000	0	0	1	995	1	+	-15	0	0	0	0	0	0
20	2023-04-20	12:26:53	13:11:16	13:11:16:969	69	2	Expectancy_rating	expectancy_rating	0	500	0	0	44	0	3688	1	When you saw the <b>object</b>,   to what <b>degree (0-100%)</b> did you expect the <b>unpleasant sound to occur</b>?	-10	26	Cue26.jpg	-10	0	0	0
20	2023-04-20	12:26:53	13:11:17	13:11:17:968	70	1	Expectancy_rating	fixation	0	5	500	0	0	1	495	1	+	-15	0	0	0	0	0	0
20	2023-04-20	12:26:53	13:11:24	13:11:24:270	70	2	Expectancy_rating	expectancy_rating	0	1000	0	0	70	0	6268	1	When you saw the <b>object</b>,   to what <b>degree (0-100%)</b> did you expect the <b>unpleasant sound to occur</b>?	-9	1	Cue1.jpg	-9	0	0	0
20	2023-04-20	12:26:53	13:11:26	13:11:26:268	71	1	Expectancy_rating	fixation	0	5	1000	0	0	1	995	1	+	-14	0	0	0	0	0	0
20	2023-04-20	12:26:53	13:11:29	13:11:29:604	71	2	Expectancy_rating	expectancy_rating	0	1500	0	0	44	0	3311	1	When you saw the <b>object</b>,   to what <b>degree (0-100%)</b> did you expect the <b>unpleasant sound to occur</b>?	-10	25	Cue25.jpg	-10	0	0	0
20	2023-04-20	12:26:53	13:11:31	13:11:31:602	72	1	Expectancy_rating	fixation	0	5	500	0	0	1	495	1	+	-14	0	0	0	0	0	0
20	2023-04-20	12:26:53	13:11:38	13:11:38:254	72	2	Expectancy_rating	expectancy_rating	0	1000	0	0	41	0	6625	1	When you saw the <b>object</b>,   to what <b>degree (0-100%)</b> did you expect the <b>unpleasant sound to occur</b>?	-10	48	Object8.jpg	-10	0	0	0
20	2023-04-20	12:26:53	13:11:40	13:11:40:753	73	1	Expectancy_rating	fixation	0	5	1500	0	0	1	1495	1	+	-15	0	0	0	0	0	0
20	2023-04-20	12:26:53	13:11:44	13:11:44:704	73	2	Expectancy_rating	expectancy_rating	0	500	0	0	62	0	3923	1	When you saw the <b>object</b>,   to what <b>degree (0-100%)</b> did you expect the <b>unpleasant sound to occur</b>?	-10	15	Cue15.jpg	-10	0	0	0
20	2023-04-20	12:26:53	13:11:46	13:11:46:203	74	1	Expectancy_rating	fixation	0	5	1000	0	0	1	995	1	+	-15	0	0	0	0	0	0
20	2023-04-20	12:26:53	13:11:49	13:11:49:555	74	2	Expectancy_rating	expectancy_rating	0	1500	0	0	45	0	3296	1	When you saw the <b>object</b>,   to what <b>degree (0-100%)</b> did you expect the <b>unpleasant sound to occur</b>?	-9	6	Cue6.jpg	-9	0	0	0
20	2023-04-20	12:26:53	13:11:52	13:11:52:540	75	1	Expectancy_rating	fixation	0	5	1500	0	0	1	1495	1	+	-9	0	0	0	0	0	0
20	2023-04-20	12:26:53	13:11:57	13:11:57:305	75	2	Expectancy_rating	expectancy_rating	0	1500	0	0	65	0	4746	1	When you saw the <b>object</b>,   to what <b>degree (0-100%)</b> did you expect the <b>unpleasant sound to occur</b>?	-16	27	Cue27.jpg	-16	0	0	0
20	2023-04-20	12:26:53	13:11:59	13:11:59:305	76	1	Expectancy_rating	fixation	0	5	500	0	0	1	495	1	+	-14	0	0	0	0	0	0
20	2023-04-20	12:26:53	13:12:04	13:12:04:539	76	2	Expectancy_rating	expectancy_rating	0	500	0	0	44	0	5204	1	When you saw the <b>object</b>,   to what <b>degree (0-100%)</b> did you expect the <b>unpleasant sound to occur</b>?	-16	9	Cue9.jpg	-16	0	0	0
20	2023-04-20	12:26:53	13:12:05	13:12:05:538	77	1	Expectancy_rating	fixation	0	5	500	0	0	1	495	1	+	-15	0	0	0	0	0	0
20	2023-04-20	12:26:53	13:12:11	13:12:11:923	77	2	Expectancy_rating	expectancy_rating	0	1000	0	0	59	0	6353	1	When you saw the <b>object</b>,   to what <b>degree (0-100%)</b> did you expect the <b>unpleasant sound to occur</b>?	-9	13	Cue13.jpg	-9	0	0	0
20	2023-04-20	12:26:53	13:12:14	13:12:14:421	78	1	Expectancy_rating	fixation	0	5	1500	0	0	1	1495	1	+	-15	0	0	0	0	0	0
20	2023-04-20	12:26:53	13:12:16	13:12:16:040	78	2	Expectancy_rating	expectancy_rating	0	500	0	0	62	0	2598	1	When you saw the <b>object</b>,   to what <b>degree (0-100%)</b> did you expect the <b>unpleasant sound to occur</b>?	-11	39	Cue39.jpg	-11	0	0	0
20	2023-04-20	12:26:53	13:12:18	13:12:18:539	79	1	Expectancy_rating	fixation	0	5	1000	0	0	1	995	1	+	-14	0	0	0	0	0	0
20	2023-04-20	12:26:53	13:12:20	13:12:20:873	79	2	Expectancy_rating	expectancy_rating	0	1000	0	0	68	0	2313	1	When you saw the <b>object</b>,   to what <b>degree (0-100%)</b> did you expect the <b>unpleasant sound to occur</b>?	-10	14	Cue14.jpg	-10	0	0	0
20	2023-04-20	12:26:53	13:12:23	13:12:23:372	80	1	Expectancy_rating	fixation	0	5	1500	0	0	1	1495	1	+	-15	0	0	0	0	0	0
20	2023-04-20	12:26:53	13:12:28	13:12:28:274	80	2	Expectancy_rating	expectancy_rating	0	1500	0	0	66	0	4880	1	When you saw the <b>object</b>,   to what <b>degree (0-100%)</b> did you expect the <b>unpleasant sound to occur</b>?	-10	33	Cue33.jpg	-10	0	0	0
20	2023-04-20	12:26:53	13:12:30	13:12:30:773	81	1	Expectancy_rating	fixation	0	5	1000	0	0	1	995	1	+	-14	0	0	0	0	0	0
20	2023-04-20	12:26:53	13:12:35	13:12:35:624	81	2	Expectancy_rating	expectancy_rating	0	500	0	0	56	0	4823	1	When you saw the <b>object</b>,   to what <b>degree (0-100%)</b> did you expect the <b>unpleasant sound to occur</b>?	-10	2	Cue2.jpg	-10	0	0	0
20	2023-04-20	12:26:53	13:12:36	13:12:36:624	82	1	Expectancy_rating	fixation	0	5	500	0	0	1	495	1	+	-14	0	0	0	0	0	0
20	2023-04-20	12:26:53	13:12:41	13:12:41:341	82	2	Expectancy_rating	expectancy_rating	0	1500	0	0	34	0	4693	1	When you saw the <b>object</b>,   to what <b>degree (0-100%)</b> did you expect the <b>unpleasant sound to occur</b>?	-10	22	Cue22.jpg	-10	0	0	0
20	2023-04-20	12:26:53	13:12:43	13:12:43:340	83	1	Expectancy_rating	fixation	0	5	500	0	0	1	495	1	+	-13	0	0	0	0	0	0
20	2023-04-20	12:26:53	13:12:47	13:12:47:775	83	2	Expectancy_rating	expectancy_rating	0	1000	0	0	44	0	4399	1	When you saw the <b>object</b>,   to what <b>degree (0-100%)</b> did you expect the <b>unpleasant sound to occur</b>?	-9	23	Cue23.jpg	-9	0	0	0
20	2023-04-20	12:26:53	13:12:49	13:12:49:776	84	1	Expectancy_rating	fixation	0	5	1000	0	0	1	995	1	+	-9	0	0	0	0	0	0
20	2023-04-20	12:26:53	13:12:56	13:12:56:543	84	2	Expectancy_rating	expectancy_rating	0	1000	0	0	68	0	6735	1	When you saw the <b>object</b>,   to what <b>degree (0-100%)</b> did you expect the <b>unpleasant sound to occur</b>?	-16	5	Cue5.jpg	-16	0	0	0
20	2023-04-20	12:26:53	13:12:58	13:12:58:044	85	1	Expectancy_rating	fixation	0	5	1500	0	0	1	1495	1	+	-8	0	0	0	0	0	0
20	2023-04-20	12:26:53	13:13:04	13:13:04:226	85	2	Expectancy_rating	expectancy_rating	0	1500	0	0	44	0	5155	1	When you saw the <b>object</b>,   to what <b>degree (0-100%)</b> did you expect the <b>unpleasant sound to occur</b>?	-16	4	Cue4.jpg	-16	0	0	0
20	2023-04-20	12:26:53	13:13:06	13:13:06:725	86	1	Expectancy_rating	fixation	0	5	1000	0	0	1	995	1	+	-14	0	0	0	0	0	0
20	2023-04-20	12:26:53	13:13:11	13:13:11:093	86	2	Expectancy_rating	expectancy_rating	0	500	0	0	43	0	4343	1	When you saw the <b>object</b>,   to what <b>degree (0-100%)</b> did you expect the <b>unpleasant sound to occur</b>?	-10	3	Cue3.jpg	-10	0	0	0
20	2023-04-20	12:26:53	13:13:13	13:13:13:091	87	1	Expectancy_rating	fixation	0	5	1500	0	0	1	1495	1	+	-14	0	0	0	0	0	0
20	2023-04-20	12:26:53	13:13:16	13:13:16:477	87	2	Expectancy_rating	expectancy_rating	0	500	0	0	77	0	3360	1	When you saw the <b>object</b>,   to what <b>degree (0-100%)</b> did you expect the <b>unpleasant sound to occur</b>?	-10	32	Cue32.jpg	-10	0	0	0
20	2023-04-20	12:26:53	13:13:17	13:13:17:477	88	1	Expectancy_rating	fixation	0	5	500	0	0	1	495	1	+	-14	0	0	0	0	0	0
20	2023-04-20	12:26:53	13:13:20	13:13:20:411	88	2	Expectancy_rating	expectancy_rating	0	1500	0	0	71	0	2904	1	When you saw the <b>object</b>,   to what <b>degree (0-100%)</b> did you expect the <b>unpleasant sound to occur</b>?	-16	31	Cue31.jpg	-16	0	0	0
20	2023-04-20	12:26:53	13:13:23	13:13:23:409	89	1	Expectancy_rating	fixation	0	5	1500	0	0	1	1495	1	+	-14	0	0	0	0	0	0
20	2023-04-20	12:26:53	13:13:26	13:13:26:877	89	2	Expectancy_rating	expectancy_rating	0	1000	0	0	58	0	3443	1	When you saw the <b>object</b>,   to what <b>degree (0-100%)</b> did you expect the <b>unpleasant sound to occur</b>?	-10	18	Cue18.jpg	-10	0	0	0
20	2023-04-20	12:26:53	13:13:28	13:13:28:376	90	1	Expectancy_rating	fixation	0	5	500	0	0	1	495	1	+	-15	0	0	0	0	0	0
20	2023-04-20	12:26:53	13:13:32	13:13:32:894	90	2	Expectancy_rating	expectancy_rating	0	1500	0	0	43	0	4485	1	When you saw the <b>object</b>,   to what <b>degree (0-100%)</b> did you expect the <b>unpleasant sound to occur</b>?	-10	11	Cue11.jpg	-10	0	0	0
20	2023-04-20	12:26:53	13:13:35	13:13:35:393	91	1	Expectancy_rating	fixation	0	5	1000	0	0	1	995	1	+	-14	0	0	0	0	0	0
20	2023-04-20	12:26:53	13:13:38	13:13:38:745	91	2	Expectancy_rating	expectancy_rating	0	1000	0	0	30	0	3323	1	When you saw the <b>object</b>,   to what <b>degree (0-100%)</b> did you expect the <b>unpleasant sound to occur</b>?	-10	45	Object5.jpg	-10	0	0	0
20	2023-04-20	12:26:53	13:13:41	13:13:41:243	92	1	Expectancy_rating	fixation	0	5	1500	0	0	1	1495	1	+	-15	0	0	0	0	0	0
20	2023-04-20	12:26:53	13:13:45	13:13:45:445	92	2	Expectancy_rating	expectancy_rating	0	500	0	0	75	0	4144	1	When you saw the <b>object</b>,   to what <b>degree (0-100%)</b> did you expect the <b>unpleasant sound to occur</b>?	-10	7	Cue7.jpg	-10	0	0	0
20	2023-04-20	12:26:53	13:13:46	13:13:46:929	93	1	Expectancy_rating	fixation	0	5	1000	0	0	1	995	1	+	-10	0	0	0	0	0	0
20	2023-04-20	12:26:53	13:13:55	13:13:55:212	93	2	Expectancy_rating	expectancy_rating	0	1000	0	0	73	0	8253	1	When you saw the <b>object</b>,   to what <b>degree (0-100%)</b> did you expect the <b>unpleasant sound to occur</b>?	-16	20	Cue20.jpg	-16	0	0	0
20	2023-04-20	12:26:53	13:13:56	13:13:56:711	94	1	Expectancy_rating	fixation	0	5	500	0	0	1	495	1	+	-15	0	0	0	0	0	0
20	2023-04-20	12:26:53	13:14:01	13:14:01:763	94	2	Expectancy_rating	expectancy_rating	0	1500	0	0	35	0	5021	1	When you saw the <b>object</b>,   to what <b>degree (0-100%)</b> did you expect the <b>unpleasant sound to occur</b>?	-10	43	Object3.jpg	-10	0	0	0
20	2023-04-20	12:26:53	13:14:04	13:14:04:761	95	1	Expectancy_rating	fixation	0	5	1500	0	0	1	1495	1	+	-15	0	0	0	0	0	0
20	2023-04-20	12:26:53	13:14:08	13:14:08:046	95	2	Expectancy_rating	expectancy_rating	0	500	0	0	58	0	4258	1	When you saw the <b>object</b>,   to what <b>degree (0-100%)</b> did you expect the <b>unpleasant sound to occur</b>?	-10	24	Cue24.jpg	-10	0	0	0
20	2023-04-20	12:26:53	13:14:09	13:14:09:045	96	1	Expectancy_rating	fixation	0	5	500	0	0	1	495	1	+	-14	0	0	0	0	0	0
20	2023-04-20	12:26:53	13:14:13	13:14:13:697	96	2	Expectancy_rating	expectancy_rating	0	1500	0	0	57	0	3631	1	When you saw the <b>object</b>,   to what <b>degree (0-100%)</b> did you expect the <b>unpleasant sound to occur</b>?	-10	10	Cue10.jpg	-10	0	0	0
20	2023-04-20	12:26:53	13:14:16	13:14:16:195	97	1	Expectancy_rating	fixation	0	5	1000	0	0	1	995	1	+	-15	0	0	0	0	0	0
20	2023-04-20	12:26:53	13:14:22	13:14:22:764	97	2	Expectancy_rating	expectancy_rating	0	500	0	0	77	0	6536	1	When you saw the <b>object</b>,   to what <b>degree (0-100%)</b> did you expect the <b>unpleasant sound to occur</b>?	-10	42	Object2.jpg	-10	0	0	0
20	2023-04-20	12:26:53	13:14:23	13:14:23:762	98	1	Expectancy_rating	fixation	0	5	500	0	0	1	495	1	+	-15	0	0	0	0	0	0
20	2023-04-20	12:26:53	13:14:26	13:14:26:814	98	2	Expectancy_rating	expectancy_rating	0	1000	0	0	42	0	3018	1	When you saw the <b>object</b>,   to what <b>degree (0-100%)</b> did you expect the <b>unpleasant sound to occur</b>?	-10	41	Object1.jpg	-10	0	0	0
20	2023-04-20	12:26:53	13:14:28	13:14:28:813	99	1	Expectancy_rating	fixation	0	5	1000	0	0	1	995	1	+	-14	0	0	0	0	0	0
20	2023-04-20	12:26:53	13:14:34	13:14:34:848	99	2	Expectancy_rating	expectancy_rating	0	1000	0	0	57	0	6015	1	When you saw the <b>object</b>,   to what <b>degree (0-100%)</b> did you expect the <b>unpleasant sound to occur</b>?	-10	12	Cue12.jpg	-10	0	0	0
20	2023-04-20	12:26:53	13:14:37	13:14:37:347	100	1	Expectancy_rating	fixation	0	5	1500	0	0	1	1495	1	+	-14	0	0	0	0	0	0
20	2023-04-20	12:26:53	13:14:41	13:14:41:031	100	2	Expectancy_rating	expectancy_rating	0	1500	0	0	57	0	4633	1	When you saw the <b>object</b>,   to what <b>degree (0-100%)</b> did you expect the <b>unpleasant sound to occur</b>?	-9	37	Cue37.jpg	-9	0	0	0
20	2023-04-20	12:26:53	13:14:44	13:14:44:513	101	1	Expectancy_rating	fixation	0	5	1000	0	0	1	995	1	+	-14	0	0	0	0	0	0
20	2023-04-20	12:26:53	13:14:49	13:14:49:782	101	2	Expectancy_rating	expectancy_rating	0	500	0	0	55	0	5235	1	When you saw the <b>object</b>,   to what <b>degree (0-100%)</b> did you expect the <b>unpleasant sound to occur</b>?	-10	17	Cue17.jpg	-10	0	0	0
20	2023-04-20	12:26:53	13:14:51	13:14:51:781	102	1	Expectancy_rating	fixation	0	5	1500	0	0	1	1495	1	+	-14	0	0	0	0	0	0
20	2023-04-20	12:26:53	13:14:54	13:14:54:049	102	2	Expectancy_rating	expectancy_rating	0	1000	0	0	43	0	3247	1	When you saw the <b>object</b>,   to what <b>degree (0-100%)</b> did you expect the <b>unpleasant sound to occur</b>?	-9	16	Cue16.jpg	-9	0	0	0
20	2023-04-20	12:26:53	13:14:56	13:14:56:548	103	1	Expectancy_rating	fixation	0	5	500	0	0	1	495	1	+	-15	0	0	0	0	0	0
20	2023-04-20	12:26:53	13:14:59	13:14:59:00	103	2	Expectancy_rating	expectancy_rating	0	1500	0	0	57	0	3432	1	When you saw the <b>object</b>,   to what <b>degree (0-100%)</b> did you expect the <b>unpleasant sound to occur</b>?	-9	28	Cue28.jpg	-9	0	0	0
20	2023-04-20	12:26:53	13:15:02	13:15:02:998	104	1	Expectancy_rating	fixation	0	5	1500	0	0	1	1495	1	+	-14	0	0	0	0	0	0
20	2023-04-20	12:26:53	13:15:06	13:15:06:566	104	2	Expectancy_rating	expectancy_rating	0	500	0	0	46	0	3533	1	When you saw the <b>object</b>,   to what <b>degree (0-100%)</b> did you expect the <b>unpleasant sound to occur</b>?	-10	36	Cue36.jpg	-10	0	0	0
20	2023-04-20	12:26:53	13:15:07	13:15:07:565	105	1	Expectancy_rating	fixation	0	5	500	0	0	1	495	1	+	-14	0	0	0	0	0	0
20	2023-04-20	12:26:53	13:15:11	13:15:11:400	105	2	Expectancy_rating	expectancy_rating	0	500	0	0	74	0	3782	1	When you saw the <b>object</b>,   to what <b>degree (0-100%)</b> did you expect the <b>unpleasant sound to occur</b>?	-10	29	Cue29.jpg	-10	0	0	0
20	2023-04-20	12:26:53	13:15:12	13:15:12:882	106	1	Expectancy_rating	fixation	0	5	1000	0	0	1	995	1	+	-14	0	0	0	0	0	0
20	2023-04-20	12:26:53	13:15:15	13:15:15:717	106	2	Expectancy_rating	expectancy_rating	0	1500	0	0	40	0	2809	1	When you saw the <b>object</b>,   to what <b>degree (0-100%)</b> did you expect the <b>unpleasant sound to occur</b>?	-10	47	Object7.jpg	-10	0	0	0
20	2023-04-20	12:26:53	13:15:18	13:15:18:217	107	1	Expectancy_rating	fixation	0	5	1000	0	0	1	995	1	+	-15	0	0	0	0	0	0
20	2023-04-20	12:26:53	13:15:21	13:15:21:901	107	2	Expectancy_rating	expectancy_rating	0	1000	0	0	63	0	3660	1	When you saw the <b>object</b>,   to what <b>degree (0-100%)</b> did you expect the <b>unpleasant sound to occur</b>?	-9	38	Cue38.jpg	-9	0	0	0
20	2023-04-20	12:26:53	13:15:23	13:15:23:399	108	1	Expectancy_rating	fixation	0	5	500	0	0	1	495	1	+	-15	0	0	0	0	0	0
20	2023-04-20	12:26:53	13:15:26	13:15:26:901	108	2	Expectancy_rating	expectancy_rating	0	1000	0	0	58	0	3468	1	When you saw the <b>object</b>,   to what <b>degree (0-100%)</b> did you expect the <b>unpleasant sound to occur</b>?	-10	19	Cue19.jpg	-10	0	0	0
20	2023-04-20	12:26:53	13:15:29	13:15:29:401	109	1	Expectancy_rating	fixation	0	5	1500	0	0	1	1495	1	+	-12	0	0	0	0	0	0
20	2023-04-20	12:26:53	13:15:32	13:15:32:834	109	2	Expectancy_rating	expectancy_rating	0	500	0	0	57	0	3380	1	When you saw the <b>object</b>,   to what <b>degree (0-100%)</b> did you expect the <b>unpleasant sound to occur</b>?	-16	8	Cue8.jpg	-16	0	0	0
20	2023-04-20	12:26:53	13:15:33	13:15:33:820	110	1	Expectancy_rating	fixation	0	5	500	0	0	1	495	1	+	-8	0	0	0	0	0	0
20	2023-04-20	12:26:53	13:15:38	13:15:38:785	110	2	Expectancy_rating	expectancy_rating	0	1500	0	0	57	0	4939	1	When you saw the <b>object</b>,   to what <b>degree (0-100%)</b> did you expect the <b>unpleasant sound to occur</b>?	-16	40	Cue40.jpg	-16	0	0	0
20	2023-04-20	12:26:53	13:15:41	13:15:41:286	111	1	Expectancy_rating	fixation	0	5	1000	0	0	1	995	1	+	-8	0	0	0	0	0	0
20	2023-04-20	12:26:53	13:15:45	13:15:45:235	111	2	Expectancy_rating	expectancy_rating	0	1000	0	0	70	0	3920	1	When you saw the <b>object</b>,   to what <b>degree (0-100%)</b> did you expect the <b>unpleasant sound to occur</b>?	-16	21	Cue21.jpg	-16	0	0	0
20	2023-04-20	12:26:53	13:15:47	13:15:47:734	112	1	Expectancy_rating	fixation	0	5	1500	0	0	1	1495	1	+	-15	0	0	0	0	0	0
20	2023-04-20	12:26:53	13:15:56	13:15:56:119	112	2	Expectancy_rating	expectancy_rating	0	1500	0	0	40	0	8357	1	When you saw the <b>object</b>,   to what <b>degree (0-100%)</b> did you expect the <b>unpleasant sound to occur</b>?	-10	34	Cue34.jpg	-10	0	0	0
20	2023-04-20	12:26:53	13:15:58	13:15:58:118	113	1	Expectancy_rating	fixation	0	5	500	0	0	1	495	1	+	-14	0	0	0	0	0	0
20	2023-04-20	12:26:53	13:16:00	13:16:00:670	113	2	Expectancy_rating	expectancy_rating	0	500	0	0	55	0	2517	1	When you saw the <b>object</b>,   to what <b>degree (0-100%)</b> did you expect the <b>unpleasant sound to occur</b>?	-10	30	Cue30.jpg	-10	0	0	0
20	2023-04-20	12:26:53	13:16:04	13:16:04:302	114	1	countdown	instructions	0	5	0	0	57	0	3099	1	<center><br><br> <b>WATCH CALLIBRATION</b>.                <br><br><br><br>In a couple of seconds a <b>countdown</b> will start that counts down from 3 to 1,       <br><br>after which the screen will show the instruction <b>PRESS BUTTON</b>.       <br><br><b>As soon as you see that screen</b>, you must shortly press the button on your watch.       <br><br> <br><br> Press SPACE  to continue.	-13	0	0	0	0	0	0
20	2023-04-20	12:26:53	13:16:05	13:16:05:320	114	2	countdown	countdown_3	0	5	0	0	0	0	1000	1	3	-15	0	0	0	0	0	0
20	2023-04-20	12:26:53	13:16:06	13:16:06:337	114	3	countdown	countdown_2	0	5	0	0	0	0	1000	1	2	-16	0	0	0	0	0	0
20	2023-04-20	12:26:53	13:16:07	13:16:07:354	114	4	countdown	countdown_1	0	5	0	0	0	0	1000	1	1	-16	0	0	0	0	0	0
20	2023-04-20	12:26:53	13:16:08	13:16:08:370	114	5	countdown	press_button	0	5	0	0	0	0	1000	1	PRESS BUTTON NOW	-16	0	0	0	0	0	0
20	2023-04-20	12:26:53	13:16:23	13:16:23:404	115	1	continue_TNT	continue_TNT	0	5	0	0	0	0	15000	1	<center> <br><br><br> We will now continue with the next block of the attention task.   <br><br><br><center>Keep your fingers balanced on the <b>1, 2 and 3 </b>on the keyboard throughout the task   <br><br>to give the rating how well you were <b>able to think</b> or <b>not think</b> (1 = NEVER, 2 = BRIEFLY, 3 = OFTEN).	-14	0	0	0	0	0	0
20	2023-04-20	12:26:53	13:16:24	13:16:24:405	116	1	TNT_NoThink_CSm	fixation	0	5	1000	0	0	1	995	1	+	-14	0	0	0	0	0	0
20	2023-04-20	12:26:53	13:16:25	13:16:25:422	116	2	TNT_NoThink_CSm	NoThink	0	5	0	0	0	0	1000	1	DON'T THINK	-16	0	0	0	0	0	0
20	2023-04-20	12:26:53	13:16:30	13:16:30:440	116	3	TNT_NoThink_CSm	TNT_NoThink_CSm	0	5	0	0	0	0	5000	5	Cue36.jpg	-16	0	0	0	0	0	0
20	2023-04-20	12:26:53	13:16:32	13:16:32:416	116	4	TNT_NoThink_CSm	Intrusion	0	1000	3000	0	2	1	1959	1	How <b>often</b> did you <b>think</b> about the <b>scene</b>?   <center><br><b>NEVER (1)    BRIEFLY (2)   OFTEN (3) </b>	-16	0	0	0	0	0	0
20	2023-04-20	12:26:53	13:16:34	13:16:34:944	117	1	TNT_NoThink_CSp	fixation	0	5	1500	0	0	1	1495	1	+	-1	0	0	0	0	0	0
20	2023-04-20	12:26:53	13:16:35	13:16:35:957	117	2	TNT_NoThink_CSp	NoThink	0	5	0	0	0	0	1000	1	DON'T THINK	-16	0	0	0	0	0	0
20	2023-04-20	12:26:53	13:16:40	13:16:40:974	117	3	TNT_NoThink_CSp	TNT_NoThink_CSp	0	5	0	0	0	0	5000	3	Cue14.jpg	-16	0	0	0	0	0	0
20	2023-04-20	12:26:53	13:16:41	13:16:41:456	117	4	TNT_NoThink_CSp	Intrusion	0	500	3000	0	2	1	465	1	How <b>often</b> did you <b>think</b> about the <b>scene</b>?   <center><br><b>NEVER (1)    BRIEFLY (2)   OFTEN (3) </b>	-16	0	0	0	0	0	0
20	2023-04-20	12:26:53	13:16:45	13:16:45:477	118	1	TNT_Think_CSm	fixation	0	5	1500	0	0	1	1495	1	+	-9	0	0	0	0	0	0
20	2023-04-20	12:26:53	13:16:46	13:16:46:491	118	2	TNT_Think_CSm	Think	0	5	0	0	0	0	1000	1	THINK	-16	0	0	0	0	0	0
20	2023-04-20	12:26:53	13:16:51	13:16:51:508	118	3	TNT_Think_CSm	TNT_Think_CSm	0	5	0	0	0	0	5000	3	Cue12.jpg	-16	0	0	0	0	0	0
20	2023-04-20	12:26:53	13:16:51	13:16:51:032	118	4	TNT_Think_CSm	Intrusion	0	1500	3000	0	4	1	507	1	How <b>often</b> did you <b>think</b> about the <b>scene</b>?   <center><br><b>NEVER (1)    BRIEFLY (2)   OFTEN (3) </b>	-16	0	0	0	0	0	0
20	2023-04-20	12:26:53	13:16:54	13:16:54:011	119	1	TNT_Object_CSm	fixation	0	5	500	0	0	1	495	1	+	-8	0	0	0	0	0	0
20	2023-04-20	12:26:53	13:16:55	13:16:55:025	119	2	TNT_Object_CSm	Passive	0	5	0	0	0	0	1000	1	VIEW	-16	0	0	0	0	0	0
20	2023-04-20	12:26:53	13:17:00	13:17:00:042	119	3	TNT_Object_CSm	TNT_Object_CSm	0	1000	0	0	0	0	5000	4	Object5.jpg	-16	0	0	0	0	0	0
20	2023-04-20	12:26:53	13:17:02	13:17:02:041	120	1	TNT_Think_CSp	fixation	0	5	1000	0	0	1	995	1	+	-8	0	0	0	0	0	0
20	2023-04-20	12:26:53	13:17:04	13:17:04:059	120	2	TNT_Think_CSp	Think	0	5	0	0	0	0	1000	1	THINK	-16	0	0	0	0	0	0
20	2023-04-20	12:26:53	13:17:09	13:17:09:076	120	3	TNT_Think_CSp	TNT_Think_CSp	0	5	0	0	0	0	5000	6	Cue31.jpg	-16	0	0	0	0	0	0
20	2023-04-20	12:26:53	13:17:09	13:17:09:456	120	4	TNT_Think_CSp	Intrusion	0	1000	3000	0	4	1	363	1	How <b>often</b> did you <b>think</b> about the <b>scene</b>?   <center><br><b>NEVER (1)    BRIEFLY (2)   OFTEN (3) </b>	-16	0	0	0	0	0	0
20	2023-04-20	12:26:53	13:17:13	13:17:13:080	121	1	TNT_NoThink_CSp	fixation	0	5	1000	0	0	1	995	1	+	-16	0	0	0	0	0	0
20	2023-04-20	12:26:53	13:17:14	13:17:14:093	121	2	TNT_NoThink_CSp	NoThink	0	5	0	0	0	0	1000	1	DON'T THINK	-16	0	0	0	0	0	0
20	2023-04-20	12:26:53	13:17:19	13:17:19:110	121	3	TNT_NoThink_CSp	TNT_NoThink_CSp	0	5	0	0	0	0	5000	4	Cue7.jpg	-16	0	0	0	0	0	0
20	2023-04-20	12:26:53	13:17:19	13:17:19:792	121	4	TNT_NoThink_CSp	Intrusion	0	1500	3000	0	2	1	665	1	How <b>often</b> did you <b>think</b> about the <b>scene</b>?   <center><br><b>NEVER (1)    BRIEFLY (2)   OFTEN (3) </b>	-16	0	0	0	0	0	0
20	2023-04-20	12:26:53	13:17:23	13:17:23:614	122	1	TNT_Object_CSm	fixation	0	5	1500	0	0	1	1495	1	+	-8	0	0	0	0	0	0
20	2023-04-20	12:26:53	13:17:24	13:17:24:627	122	2	TNT_Object_CSm	Passive	0	5	0	0	0	0	1000	1	VIEW	-16	0	0	0	0	0	0
20	2023-04-20	12:26:53	13:17:29	13:17:29:643	122	3	TNT_Object_CSm	TNT_Object_CSm	0	1000	0	0	0	0	5000	1	Object7.jpg	-16	0	0	0	0	0	0
20	2023-04-20	12:26:53	13:17:31	13:17:31:143	123	1	TNT_Object_CSm	fixation	0	5	500	0	0	1	495	1	+	-8	0	0	0	0	0	0
20	2023-04-20	12:26:53	13:17:32	13:17:32:160	123	2	TNT_Object_CSm	Passive	0	5	0	0	0	0	1000	1	VIEW	-16	0	0	0	0	0	0
20	2023-04-20	12:26:53	13:17:37	13:17:37:177	123	3	TNT_Object_CSm	TNT_Object_CSm	0	500	0	0	0	0	5000	2	Object8.jpg	-16	0	0	0	0	0	0
20	2023-04-20	12:26:53	13:17:38	13:17:38:176	124	1	TNT_NoThink_CSp	fixation	0	5	500	0	0	1	495	1	+	-8	0	0	0	0	0	0
20	2023-04-20	12:26:53	13:17:39	13:17:39:194	124	2	TNT_NoThink_CSp	NoThink	0	5	0	0	0	0	1000	1	DON'T THINK	-16	0	0	0	0	0	0
20	2023-04-20	12:26:53	13:17:44	13:17:44:211	124	3	TNT_NoThink_CSp	TNT_NoThink_CSp	0	5	0	0	0	0	5000	6	Cue6.jpg	-16	0	0	0	0	0	0
20	2023-04-20	12:26:53	13:17:44	13:17:44:784	124	4	TNT_NoThink_CSp	Intrusion	0	500	3000	0	2	1	556	1	How <b>often</b> did you <b>think</b> about the <b>scene</b>?   <center><br><b>NEVER (1)    BRIEFLY (2)   OFTEN (3) </b>	-16	0	0	0	0	0	0
20	2023-04-20	12:26:53	13:17:48	13:17:48:715	125	1	TNT_Think_CSp	fixation	0	5	1500	0	0	1	1495	1	+	-9	0	0	0	0	0	0
20	2023-04-20	12:26:53	13:17:49	13:17:49:728	125	2	TNT_Think_CSp	Think	0	5	0	0	0	0	1000	1	THINK	-16	0	0	0	0	0	0
20	2023-04-20	12:26:53	13:17:54	13:17:54:745	125	3	TNT_Think_CSp	TNT_Think_CSp	0	5	0	0	0	0	5000	3	Cue19.jpg	-16	0	0	0	0	0	0
20	2023-04-20	12:26:53	13:17:55	13:17:55:760	125	4	TNT_Think_CSp	Intrusion	0	1000	3000	0	4	1	998	1	How <b>often</b> did you <b>think</b> about the <b>scene</b>?   <center><br><b>NEVER (1)    BRIEFLY (2)   OFTEN (3) </b>	-16	0	0	0	0	0	0
20	2023-04-20	12:26:53	13:17:58	13:17:58:749	126	1	TNT_Object_CSp	fixation	0	5	1000	0	0	1	995	1	+	-9	0	0	0	0	0	0
20	2023-04-20	12:26:53	13:17:59	13:17:59:762	126	2	TNT_Object_CSp	Passive	0	5	0	0	0	0	1000	1	VIEW	-16	0	0	0	0	0	0
