date	time	group	subject	session	build	blocknum	trialnum	blockcode	trialcode	pretrialpause	posttrialpause	trialduration	trialtimeout	response	correct	latency	stimulusnumber1	stimulusitem1	stimulusonset1	stimulusnumber2	stimulusitem2	stimulusonset2	stimulusnumber3	stimulusitem3	stimulusonset3
2022-07-07	13:53:17	1	3	1	6.5.1	1	1	Reminder_Baseline_CSp	fixation	0	5	500	0	0	1	495	1	+	2	0	0	0	0	0	0
2022-07-07	13:53:17	1	3	1	6.5.1	1	2	Reminder_Baseline_CSp	Baseline_CSp	0	5	0	0	0	0	4000	1	+	7	6	Cue29.jpg	7	6	Target29.jpg	7
2022-07-07	13:53:17	1	3	1	6.5.1	1	3	Reminder_Baseline_CSp	valence	0	5	0	0	50	0	8307	1	I found these images to be...	29	0	0	0	0	0	0
2022-07-07	13:53:17	1	3	1	6.5.1	1	4	Reminder_Baseline_CSp	expectancy	0	1000	0	0	59	0	8035	1	When you saw the <b>object-scene</b>,   to what <b>degree</b> did you expect the <b>unpleasant sound to occur</b>?	10	0	0	0	0	0	0
2022-07-07	13:53:17	1	3	1	6.5.1	2	1	Reminder_Baseline_CSp	fixation	0	5	1000	0	0	1	995	1	+	3	0	0	0	0	0	0
2022-07-07	13:53:17	1	3	1	6.5.1	2	2	Reminder_Baseline_CSp	Baseline_CSp	0	5	0	0	0	0	4000	1	+	0	5	Cue8.jpg	0	5	Target8.jpg	0
2022-07-07	13:53:17	1	3	1	6.5.1	2	3	Reminder_Baseline_CSp	valence	0	5	0	0	38	0	1814	1	I found these images to be...	0	0	0	0	0	0	0
2022-07-07	13:53:17	1	3	1	6.5.1	2	4	Reminder_Baseline_CSp	expectancy	0	500	0	0	39	0	5411	1	When you saw the <b>object-scene</b>,   to what <b>degree</b> did you expect the <b>unpleasant sound to occur</b>?	5	0	0	0	0	0	0
2022-07-07	13:53:17	1	3	1	6.5.1	3	1	Reminder_NoThink_CSm	fixation	0	5	1500	0	0	1	1495	1	+	3	0	0	0	0	0	0
2022-07-07	13:53:17	1	3	1	6.5.1	3	2	Reminder_NoThink_CSm	NoThink_CSm	0	5	0	0	0	0	4000	1	+	0	3	Cue1.jpg	0	3	Target1.jpg	0
2022-07-07	13:53:17	1	3	1	6.5.1	3	3	Reminder_NoThink_CSm	valence	0	5	0	0	24	0	2792	1	I found these images to be...	0	0	0	0	0	0	0
2022-07-07	13:53:17	1	3	1	6.5.1	3	4	Reminder_NoThink_CSm	expectancy	0	1500	0	0	31	0	5439	1	When you saw the <b>object-scene</b>,   to what <b>degree</b> did you expect the <b>unpleasant sound to occur</b>?	4	0	0	0	0	0	0
2022-07-07	13:53:17	1	3	1	6.5.1	4	1	Reminder_NoThink_CSm	fixation	0	5	500	0	0	1	495	1	+	3	0	0	0	0	0	0
2022-07-07	13:53:17	1	3	1	6.5.1	4	2	Reminder_NoThink_CSm	NoThink_CSm	0	5	0	0	0	0	4000	1	+	0	4	Cue21.jpg	0	4	Target21.jpg	0
2022-07-07	13:53:17	1	3	1	6.5.1	4	3	Reminder_NoThink_CSm	valence	0	5	0	0	25	0	2435	1	I found these images to be...	0	0	0	0	0	0	0
2022-07-07	13:53:17	1	3	1	6.5.1	4	4	Reminder_NoThink_CSm	expectancy	0	500	0	0	50	0	3223	1	When you saw the <b>object-scene</b>,   to what <b>degree</b> did you expect the <b>unpleasant sound to occur</b>?	4	0	0	0	0	0	0
2022-07-07	13:53:17	1	3	1	6.5.1	5	1	Reminder_Baseline_CSp	fixation	0	5	1500	0	0	1	1495	1	+	3	0	0	0	0	0	0
2022-07-07	13:53:17	1	3	1	6.5.1	5	2	Reminder_Baseline_CSp	Baseline_CSp	0	5	0	0	0	0	4000	1	+	0	2	Cue23.jpg	0	2	Target23.jpg	0
2022-07-07	13:53:17	1	3	1	6.5.1	5	3	Reminder_Baseline_CSp	valence	0	5	0	0	50	0	3340	1	I found these images to be...	0	0	0	0	0	0	0
2022-07-07	13:53:17	1	3	1	6.5.1	5	4	Reminder_Baseline_CSp	expectancy	0	1000	0	0	50	0	2909	1	When you saw the <b>object-scene</b>,   to what <b>degree</b> did you expect the <b>unpleasant sound to occur</b>?	17	0	0	0	0	0	0
2022-07-07	13:53:17	1	3	1	6.5.1	6	1	Reminder_Objects_CSp	fixation	0	5	1000	0	0	1	995	1	+	4	0	0	0	0	0	0
2022-07-07	13:53:17	1	3	1	6.5.1	6	2	Reminder_Objects_CSp	Objects_CSp	0	5	0	0	0	0	4000	1	Object1.jpg	0	0	0	0	0	0	0
2022-07-07	13:53:17	1	3	1	6.5.1	6	3	Reminder_Objects_CSp	expectancy_object	0	1500	0	0	50	0	2838	1	When you saw the <b>object</b>,   to what <b>degree</b> did you expect the <b>unpleasant sound to occur</b>?	0	0	0	0	0	0	0
2022-07-07	13:53:17	1	3	1	6.5.1	7	1	Reminder_Baseline_CSm	fixation	0	5	500	0	0	1	495	1	+	1	0	0	0	0	0	0
2022-07-07	13:53:17	1	3	1	6.5.1	7	2	Reminder_Baseline_CSm	Baseline_CSm	0	5	0	0	0	0	4000	1	+	0	2	Cue15.jpg	0	2	Target15.jpg	0
2022-07-07	13:53:17	1	3	1	6.5.1	7	3	Reminder_Baseline_CSm	valence	0	5	0	0	50	0	3050	1	I found these images to be...	0	0	0	0	0	0	0
2022-07-07	13:53:17	1	3	1	6.5.1	7	4	Reminder_Baseline_CSm	expectancy	0	1500	0	0	50	0	2534	1	When you saw the <b>object-scene</b>,   to what <b>degree</b> did you expect the <b>unpleasant sound to occur</b>?	5	0	0	0	0	0	0
2022-07-07	13:53:17	1	3	1	6.5.1	8	1	PracticeItems_NoThink	fixation	0	5	1000	0	0	1	995	1	+	1	0	0	0	0	0	0
2022-07-07	13:53:17	1	3	1	6.5.1	8	2	PracticeItems_NoThink	PracticeItems_NoThink	0	5	0	0	0	0	4000	1	+	0	1	Cue39.jpg	0	1	Target39.jpg	0
2022-07-07	13:53:17	1	3	1	6.5.1	8	3	PracticeItems_NoThink	valence	0	5	0	0	19	0	3058	1	I found these images to be...	0	0	0	0	0	0	0
2022-07-07	13:53:17	1	3	1	6.5.1	8	4	PracticeItems_NoThink	expectancy	0	500	0	0	32	0	7310	1	When you saw the <b>object-scene</b>,   to what <b>degree</b> did you expect the <b>unpleasant sound to occur</b>?	7	0	0	0	0	0	0
2022-07-07	13:53:17	1	3	1	6.5.1	9	1	Reminder_Baseline_CSm	fixation	0	5	1500	0	0	1	1495	1	+	1	0	0	0	0	0	0
2022-07-07	13:53:17	1	3	1	6.5.1	9	2	Reminder_Baseline_CSm	Baseline_CSm	0	5	0	0	0	0	4000	1	+	0	3	Cue3.jpg	0	3	Target3.jpg	0
2022-07-07	13:53:17	1	3	1	6.5.1	9	3	Reminder_Baseline_CSm	valence	0	5	0	0	50	0	1704	1	I found these images to be...	0	0	0	0	0	0	0
2022-07-07	13:53:17	1	3	1	6.5.1	9	4	Reminder_Baseline_CSm	expectancy	0	1500	0	0	50	0	3705	1	When you saw the <b>object-scene</b>,   to what <b>degree</b> did you expect the <b>unpleasant sound to occur</b>?	17	0	0	0	0	0	0
2022-07-07	13:53:17	1	3	1	6.5.1	10	1	Reminder_Think_CSp	fixation	0	5	500	0	0	1	495	1	+	8	0	0	0	0	0	0
2022-07-07	13:53:17	1	3	1	6.5.1	10	2	Reminder_Think_CSp	Think_CSp	0	5	0	0	0	0	4000	1	+	0	5	Cue17.jpg	0	5	Target17.jpg	0
2022-07-07	13:53:17	1	3	1	6.5.1	10	3	Reminder_Think_CSp	valence	0	5	0	0	30	0	3491	1	I found these images to be...	0	0	0	0	0	0	0
2022-07-07	13:53:17	1	3	1	6.5.1	10	4	Reminder_Think_CSp	expectancy	0	1000	0	0	55	0	3406	1	When you saw the <b>object-scene</b>,   to what <b>degree</b> did you expect the <b>unpleasant sound to occur</b>?	17	0	0	0	0	0	0
2022-07-07	13:53:17	1	3	1	6.5.1	11	1	Reminder_Think_CSp	fixation	0	5	1000	0	0	1	995	1	+	4	0	0	0	0	0	0
2022-07-07	13:53:17	1	3	1	6.5.1	11	2	Reminder_Think_CSp	Think_CSp	0	5	0	0	0	0	4000	1	+	0	1	Cue28.jpg	0	1	Target28.jpg	0
2022-07-07	13:53:17	1	3	1	6.5.1	11	3	Reminder_Think_CSp	valence	0	5	0	0	32	0	2451	1	I found these images to be...	0	0	0	0	0	0	0
2022-07-07	13:53:17	1	3	1	6.5.1	11	4	Reminder_Think_CSp	expectancy	0	1000	0	0	20	0	5230	1	When you saw the <b>object-scene</b>,   to what <b>degree</b> did you expect the <b>unpleasant sound to occur</b>?	5	0	0	0	0	0	0
2022-07-07	13:53:17	1	3	1	6.5.1	12	1	Reminder_Objects_CSm	fixation	0	5	1500	0	0	1	1495	1	+	3	0	0	0	0	0	0
2022-07-07	13:53:17	1	3	1	6.5.1	12	2	Reminder_Objects_CSm	Objects_CSm	0	5	0	0	0	0	4000	3	Object5.jpg	0	0	0	0	0	0	0
2022-07-07	13:53:17	1	3	1	6.5.1	12	3	Reminder_Objects_CSm	expectancy_object	0	500	0	0	0	0	5840	1	When you saw the <b>object</b>,   to what <b>degree</b> did you expect the <b>unpleasant sound to occur</b>?	0	0	0	0	0	0	0
2022-07-07	13:53:17	1	3	1	6.5.1	13	1	Reminder_NoThink_CSp	fixation	0	5	1500	0	0	1	1495	1	+	7	0	0	0	0	0	0
2022-07-07	13:53:17	1	3	1	6.5.1	13	2	Reminder_NoThink_CSp	NoThink_CSp	0	5	0	0	0	0	4000	1	+	0	6	Cue24.jpg	0	6	Target24.jpg	0
2022-07-07	13:53:17	1	3	1	6.5.1	13	3	Reminder_NoThink_CSp	valence	0	5	0	0	0	0	2299	1	I found these images to be...	0	0	0	0	0	0	0
2022-07-07	13:53:17	1	3	1	6.5.1	13	4	Reminder_NoThink_CSp	expectancy	0	500	0	0	56	0	12236	1	When you saw the <b>object-scene</b>,   to what <b>degree</b> did you expect the <b>unpleasant sound to occur</b>?	9	0	0	0	0	0	0
2022-07-07	13:53:17	1	3	1	6.5.1	14	1	PracticeItems_Think	fixation	0	5	500	0	0	1	495	1	+	2	0	0	0	0	0	0
2022-07-07	13:53:17	1	3	1	6.5.1	14	2	PracticeItems_Think	PracticeItems_Think	0	5	0	0	0	0	4000	1	+	0	1	Cue37.jpg	0	1	Target37.jpg	0
2022-07-07	13:53:17	1	3	1	6.5.1	14	3	PracticeItems_Think	valence	0	5	0	0	45	0	2288	1	I found these images to be...	0	0	0	0	0	0	0
2022-07-07	13:53:17	1	3	1	6.5.1	14	4	PracticeItems_Think	expectancy	0	1500	0	0	50	0	1490	1	When you saw the <b>object-scene</b>,   to what <b>degree</b> did you expect the <b>unpleasant sound to occur</b>?	4	0	0	0	0	0	0
2022-07-07	13:53:17	1	3	1	6.5.1	15	1	Reminder_Think_CSp	fixation	0	5	1000	0	0	1	995	1	+	3	0	0	0	0	0	0
2022-07-07	13:53:17	1	3	1	6.5.1	15	2	Reminder_Think_CSp	Think_CSp	0	5	0	0	0	0	4000	1	+	0	4	Cue34.jpg	0	4	Target34.jpg	0
2022-07-07	13:53:17	1	3	1	6.5.1	15	3	Reminder_Think_CSp	valence	0	5	0	0	36	0	2039	1	I found these images to be...	0	0	0	0	0	0	0
2022-07-07	13:53:17	1	3	1	6.5.1	15	4	Reminder_Think_CSp	expectancy	0	500	0	0	0	0	5604	1	When you saw the <b>object-scene</b>,   to what <b>degree</b> did you expect the <b>unpleasant sound to occur</b>?	5	0	0	0	0	0	0
2022-07-07	13:53:17	1	3	1	6.5.1	16	1	Reminder_Baseline_CSm	fixation	0	5	500	0	0	1	495	1	+	1	0	0	0	0	0	0
2022-07-07	13:53:17	1	3	1	6.5.1	16	2	Reminder_Baseline_CSm	Baseline_CSm	0	5	0	0	0	0	4000	1	+	0	6	Cue11.jpg	0	6	Target11.jpg	0
2022-07-07	13:53:17	1	3	1	6.5.1	16	3	Reminder_Baseline_CSm	valence	0	5	0	0	50	0	1546	1	I found these images to be...	0	0	0	0	0	0	0
2022-07-07	13:53:17	1	3	1	6.5.1	16	4	Reminder_Baseline_CSm	expectancy	0	1500	0	0	0	0	3570	1	When you saw the <b>object-scene</b>,   to what <b>degree</b> did you expect the <b>unpleasant sound to occur</b>?	5	0	0	0	0	0	0
2022-07-07	13:53:17	1	3	1	6.5.1	17	1	Reminder_NoThink_CSp	fixation	0	5	1000	0	0	1	995	1	+	1	0	0	0	0	0	0
2022-07-07	13:53:17	1	3	1	6.5.1	17	2	Reminder_NoThink_CSp	NoThink_CSp	0	5	0	0	0	0	4000	1	+	0	4	Cue4.jpg	0	4	Target4.jpg	0
2022-07-07	13:53:17	1	3	1	6.5.1	17	3	Reminder_NoThink_CSp	valence	0	5	0	0	40	0	5901	1	I found these images to be...	0	0	0	0	0	0	0
2022-07-07	13:53:17	1	3	1	6.5.1	17	4	Reminder_NoThink_CSp	expectancy	0	1000	0	0	0	0	3495	1	When you saw the <b>object-scene</b>,   to what <b>degree</b> did you expect the <b>unpleasant sound to occur</b>?	5	0	0	0	0	0	0
2022-07-07	13:53:17	1	3	1	6.5.1	18	1	Reminder_Think_CSp	fixation	0	5	1500	0	0	1	1495	1	+	3	0	0	0	0	0	0
2022-07-07	13:53:17	1	3	1	6.5.1	18	2	Reminder_Think_CSp	Think_CSp	0	5	0	0	0	0	4000	1	+	0	2	Cue18.jpg	0	2	Target18.jpg	0
2022-07-07	13:53:17	1	3	1	6.5.1	18	3	Reminder_Think_CSp	valence	0	5	0	0	0	0	2837	1	I found these images to be...	0	0	0	0	0	0	0
2022-07-07	13:53:17	1	3	1	6.5.1	18	4	Reminder_Think_CSp	expectancy	0	1500	0	0	0	0	3754	1	When you saw the <b>object-scene</b>,   to what <b>degree</b> did you expect the <b>unpleasant sound to occur</b>?	5	0	0	0	0	0	0
2022-07-07	13:53:17	1	3	1	6.5.1	19	1	Reminder_NoThink_CSm	fixation	0	5	1500	0	0	1	1495	1	+	4	0	0	0	0	0	0
2022-07-07	13:53:17	1	3	1	6.5.1	19	2	Reminder_NoThink_CSm	NoThink_CSm	0	5	0	0	0	0	4000	1	+	0	6	Cue33.jpg	0	6	Target33.jpg	0
2022-07-07	13:53:17	1	3	1	6.5.1	19	3	Reminder_NoThink_CSm	valence	0	5	0	0	21	0	2801	1	I found these images to be...	0	0	0	0	0	0	0
2022-07-07	13:53:17	1	3	1	6.5.1	19	4	Reminder_NoThink_CSm	expectancy	0	1000	0	0	40	0	4599	1	When you saw the <b>object-scene</b>,   to what <b>degree</b> did you expect the <b>unpleasant sound to occur</b>?	7	0	0	0	0	0	0
2022-07-07	13:53:17	1	3	1	6.5.1	20	1	Reminder_Objects_CSp	fixation	0	5	500	0	0	1	495	1	+	4	0	0	0	0	0	0
2022-07-07	13:53:17	1	3	1	6.5.1	20	2	Reminder_Objects_CSp	Objects_CSp	0	5	0	0	0	0	4000	3	Object4.jpg	0	0	0	0	0	0	0
2022-07-07	13:53:17	1	3	1	6.5.1	20	3	Reminder_Objects_CSp	expectancy_object	0	1000	0	0	0	0	4040	1	When you saw the <b>object</b>,   to what <b>degree</b> did you expect the <b>unpleasant sound to occur</b>?	0	0	0	0	0	0	0
2022-07-07	13:53:17	1	3	1	6.5.1	21	1	Reminder_Baseline_CSp	fixation	0	5	1000	0	0	1	995	1	+	3	0	0	0	0	0	0
2022-07-07	13:53:17	1	3	1	6.5.1	21	2	Reminder_Baseline_CSp	Baseline_CSp	0	5	0	0	0	0	4000	1	+	0	1	Cue13.jpg	0	1	Target13.jpg	0
2022-07-07	13:53:17	1	3	1	6.5.1	21	3	Reminder_Baseline_CSp	valence	0	5	0	0	0	0	5292	1	I found these images to be...	0	0	0	0	0	0	0
2022-07-07	13:53:17	1	3	1	6.5.1	21	4	Reminder_Baseline_CSp	expectancy	0	500	0	0	100	0	3295	1	When you saw the <b>object-scene</b>,   to what <b>degree</b> did you expect the <b>unpleasant sound to occur</b>?	5	0	0	0	0	0	0
2022-07-07	13:53:17	1	3	1	6.5.1	22	1	Reminder_NoThink_CSp	fixation	0	5	1500	0	0	1	1495	1	+	3	0	0	0	0	0	0
2022-07-07	13:53:17	1	3	1	6.5.1	22	2	Reminder_NoThink_CSp	NoThink_CSp	0	5	0	0	0	0	4000	1	+	0	5	Cue35.jpg	0	5	Target35.jpg	0
2022-07-07	13:53:17	1	3	1	6.5.1	22	3	Reminder_NoThink_CSp	valence	0	5	0	0	13	0	5185	1	I found these images to be...	0	0	0	0	0	0	0
2022-07-07	13:53:17	1	3	1	6.5.1	22	4	Reminder_NoThink_CSp	expectancy	0	1000	0	0	39	0	3287	1	When you saw the <b>object-scene</b>,   to what <b>degree</b> did you expect the <b>unpleasant sound to occur</b>?	7	0	0	0	0	0	0
2022-07-07	13:53:17	1	3	1	6.5.1	23	1	Reminder_Objects_CSm	fixation	0	5	1000	0	0	1	995	1	+	1	0	0	0	0	0	0
2022-07-07	13:53:17	1	3	1	6.5.1	23	2	Reminder_Objects_CSm	Objects_CSm	0	5	0	0	0	0	4000	4	Object6.jpg	0	0	0	0	0	0	0
2022-07-07	13:53:17	1	3	1	6.5.1	23	3	Reminder_Objects_CSm	expectancy_object	0	1500	0	0	40	0	3241	1	When you saw the <b>object</b>,   to what <b>degree</b> did you expect the <b>unpleasant sound to occur</b>?	0	0	0	0	0	0	0
2022-07-07	13:53:17	1	3	1	6.5.1	24	1	Reminder_NoThink_CSp	fixation	0	5	500	0	0	1	495	1	+	3	0	0	0	0	0	0
2022-07-07	13:53:17	1	3	1	6.5.1	24	2	Reminder_NoThink_CSp	NoThink_CSp	0	5	0	0	0	0	4000	1	+	0	1	Cue22.jpg	0	1	Target22.jpg	0
2022-07-07	13:53:17	1	3	1	6.5.1	24	3	Reminder_NoThink_CSp	valence	0	5	0	0	44	0	3445	1	I found these images to be...	0	0	0	0	0	0	0
2022-07-07	13:53:17	1	3	1	6.5.1	24	4	Reminder_NoThink_CSp	expectancy	0	500	0	0	50	0	2120	1	When you saw the <b>object-scene</b>,   to what <b>degree</b> did you expect the <b>unpleasant sound to occur</b>?	9	0	0	0	0	0	0
2022-07-07	13:53:17	1	3	1	6.5.1	25	1	Reminder_NoThink_CSp	fixation	0	5	500	0	0	1	495	1	+	1	0	0	0	0	0	0
2022-07-07	13:53:17	1	3	1	6.5.1	25	2	Reminder_NoThink_CSp	NoThink_CSp	0	5	0	0	0	0	4000	1	+	0	2	Cue26.jpg	0	2	Target26.jpg	0
2022-07-07	13:53:17	1	3	1	6.5.1	25	3	Reminder_NoThink_CSp	valence	0	5	0	0	47	0	4145	1	I found these images to be...	0	0	0	0	0	0	0
2022-07-07	13:53:17	1	3	1	6.5.1	25	4	Reminder_NoThink_CSp	expectancy	0	1500	0	0	17	0	2937	1	When you saw the <b>object-scene</b>,   to what <b>degree</b> did you expect the <b>unpleasant sound to occur</b>?	4	0	0	0	0	0	0
2022-07-07	13:53:17	1	3	1	6.5.1	26	1	Reminder_Think_CSm	fixation	0	5	1500	0	0	1	1495	1	+	3	0	0	0	0	0	0
2022-07-07	13:53:17	1	3	1	6.5.1	26	2	Reminder_Think_CSm	Think_CSm	0	5	0	0	0	0	4000	1	+	0	6	Cue10.jpg	0	6	Target10.jpg	0
2022-07-07	13:53:17	1	3	1	6.5.1	26	3	Reminder_Think_CSm	valence	0	5	0	0	43	0	2313	1	I found these images to be...	0	0	0	0	0	0	0
2022-07-07	13:53:17	1	3	1	6.5.1	26	4	Reminder_Think_CSm	expectancy	0	1500	0	0	13	0	9651	1	When you saw the <b>object-scene</b>,   to what <b>degree</b> did you expect the <b>unpleasant sound to occur</b>?	5	0	0	0	0	0	0
2022-07-07	13:53:17	1	3	1	6.5.1	27	1	Reminder_Baseline_CSm	fixation	0	5	1000	0	0	1	995	1	+	1	0	0	0	0	0	0
2022-07-07	13:53:17	1	3	1	6.5.1	27	2	Reminder_Baseline_CSm	Baseline_CSm	0	5	0	0	0	0	4000	1	+	0	4	Cue12.jpg	0	4	Target12.jpg	0
2022-07-07	13:53:17	1	3	1	6.5.1	27	3	Reminder_Baseline_CSm	valence	0	5	0	0	34	0	3154	1	I found these images to be...	0	0	0	0	0	0	0
2022-07-07	13:53:17	1	3	1	6.5.1	27	4	Reminder_Baseline_CSm	expectancy	0	1000	0	0	4	0	3130	1	When you saw the <b>object-scene</b>,   to what <b>degree</b> did you expect the <b>unpleasant sound to occur</b>?	17	0	0	0	0	0	0
2022-07-07	13:53:17	1	3	1	6.5.1	28	1	Reminder_Think_CSp	fixation	0	5	1500	0	0	1	1495	1	+	3	0	0	0	0	0	0
2022-07-07	13:53:17	1	3	1	6.5.1	28	2	Reminder_Think_CSp	Think_CSp	0	5	0	0	0	0	4000	1	+	0	6	Cue19.jpg	0	6	Target19.jpg	0
2022-07-07	13:53:17	1	3	1	6.5.1	28	3	Reminder_Think_CSp	valence	0	5	0	0	16	0	6319	1	I found these images to be...	0	0	0	0	0	0	0
2022-07-07	13:53:17	1	3	1	6.5.1	28	4	Reminder_Think_CSp	expectancy	0	500	0	0	79	0	1800	1	When you saw the <b>object-scene</b>,   to what <b>degree</b> did you expect the <b>unpleasant sound to occur</b>?	5	0	0	0	0	0	0
2022-07-07	13:53:17	1	3	1	6.5.1	29	1	Reminder_NoThink_CSp	fixation	0	5	1000	0	0	1	995	1	+	3	0	0	0	0	0	0
2022-07-07	13:53:17	1	3	1	6.5.1	29	2	Reminder_NoThink_CSp	NoThink_CSp	0	5	0	0	0	0	4000	1	+	0	3	Cue5.jpg	0	3	Target5.jpg	0
2022-07-07	13:53:17	1	3	1	6.5.1	29	3	Reminder_NoThink_CSp	valence	0	5	0	0	43	0	3265	1	I found these images to be...	0	0	0	0	0	0	0
2022-07-07	13:53:17	1	3	1	6.5.1	29	4	Reminder_NoThink_CSp	expectancy	0	1500	0	0	42	0	6660	1	When you saw the <b>object-scene</b>,   to what <b>degree</b> did you expect the <b>unpleasant sound to occur</b>?	5	0	0	0	0	0	0
2022-07-07	13:53:17	1	3	1	6.5.1	30	1	PracticeItems_NoThink	fixation	0	5	500	0	0	1	495	1	+	3	0	0	0	0	0	0
2022-07-07	13:53:17	1	3	1	6.5.1	30	2	PracticeItems_NoThink	PracticeItems_NoThink	0	5	0	0	0	0	4000	1	+	0	2	Cue40.jpg	0	2	Target40.jpg	0
2022-07-07	13:53:17	1	3	1	6.5.1	30	3	PracticeItems_NoThink	valence	0	5	0	0	0	0	2175	1	I found these images to be...	0	0	0	0	0	0	0
2022-07-07	13:53:17	1	3	1	6.5.1	30	4	PracticeItems_NoThink	expectancy	0	500	0	0	58	0	2630	1	When you saw the <b>object-scene</b>,   to what <b>degree</b> did you expect the <b>unpleasant sound to occur</b>?	5	0	0	0	0	0	0
2022-07-07	13:53:17	1	3	1	6.5.1	31	1	Reminder_Objects_CSm	fixation	0	5	1500	0	0	1	1495	1	+	7	0	0	0	0	0	0
2022-07-07	13:53:17	1	3	1	6.5.1	31	2	Reminder_Objects_CSm	Objects_CSm	0	5	0	0	0	0	4000	1	Object7.jpg	0	0	0	0	0	0	0
2022-07-07	13:53:17	1	3	1	6.5.1	31	3	Reminder_Objects_CSm	expectancy_object	0	500	0	0	29	0	3851	1	When you saw the <b>object</b>,   to what <b>degree</b> did you expect the <b>unpleasant sound to occur</b>?	0	0	0	0	0	0	0
2022-07-07	13:53:17	1	3	1	6.5.1	32	1	Reminder_Think_CSm	fixation	0	5	500	0	0	1	495	1	+	3	0	0	0	0	0	0
2022-07-07	13:53:17	1	3	1	6.5.1	32	2	Reminder_Think_CSm	Think_CSm	0	5	0	0	0	0	4000	1	+	0	3	Cue20.jpg	0	3	Target20.jpg	0
2022-07-07	13:53:17	1	3	1	6.5.1	32	3	Reminder_Think_CSm	valence	0	5	0	0	39	0	1582	1	I found these images to be...	0	0	0	0	0	0	0
2022-07-07	13:53:17	1	3	1	6.5.1	32	4	Reminder_Think_CSm	expectancy	0	1000	0	0	40	0	3484	1	When you saw the <b>object-scene</b>,   to what <b>degree</b> did you expect the <b>unpleasant sound to occur</b>?	5	0	0	0	0	0	0
2022-07-07	13:53:17	1	3	1	6.5.1	33	1	Reminder_Think_CSp	fixation	0	5	1000	0	0	1	995	1	+	1	0	0	0	0	0	0
2022-07-07	13:53:17	1	3	1	6.5.1	33	2	Reminder_Think_CSp	Think_CSp	0	5	0	0	0	0	4000	1	+	0	3	Cue27.jpg	0	3	Target27.jpg	0
2022-07-07	13:53:17	1	3	1	6.5.1	33	3	Reminder_Think_CSp	valence	0	5	0	0	50	0	4119	1	I found these images to be...	0	0	0	0	0	0	0
2022-07-07	13:53:17	1	3	1	6.5.1	33	4	Reminder_Think_CSp	expectancy	0	500	0	0	47	0	2247	1	When you saw the <b>object-scene</b>,   to what <b>degree</b> did you expect the <b>unpleasant sound to occur</b>?	4	0	0	0	0	0	0
2022-07-07	13:53:17	1	3	1	6.5.1	34	1	PracticeItems_Think	fixation	0	5	1000	0	0	1	995	1	+	1	0	0	0	0	0	0
2022-07-07	13:53:17	1	3	1	6.5.1	34	2	PracticeItems_Think	PracticeItems_Think	0	5	0	0	0	0	4000	1	+	0	2	Cue38.jpg	0	2	Target38.jpg	0
2022-07-07	13:53:17	1	3	1	6.5.1	34	3	PracticeItems_Think	valence	0	5	0	0	8	0	3135	1	I found these images to be...	0	0	0	0	0	0	0
2022-07-07	13:53:17	1	3	1	6.5.1	34	4	PracticeItems_Think	expectancy	0	1000	0	0	61	0	4128	1	When you saw the <b>object-scene</b>,   to what <b>degree</b> did you expect the <b>unpleasant sound to occur</b>?	5	0	0	0	0	0	0
2022-07-07	13:53:17	1	3	1	6.5.1	35	1	Reminder_Think_CSm	fixation	0	5	500	0	0	1	495	1	+	1	0	0	0	0	0	0
2022-07-07	13:53:17	1	3	1	6.5.1	35	2	Reminder_Think_CSm	Think_CSm	0	5	0	0	0	0	4000	1	+	0	5	Cue36.jpg	0	5	Target36.jpg	0
2022-07-07	13:53:17	1	3	1	6.5.1	35	3	Reminder_Think_CSm	valence	0	5	0	0	8	0	3132	1	I found these images to be...	0	0	0	0	0	0	0
2022-07-07	13:53:17	1	3	1	6.5.1	35	4	Reminder_Think_CSm	expectancy	0	1500	0	0	57	0	3036	1	When you saw the <b>object-scene</b>,   to what <b>degree</b> did you expect the <b>unpleasant sound to occur</b>?	9	0	0	0	0	0	0
2022-07-07	13:53:17	1	3	1	6.5.1	36	1	Reminder_Baseline_CSp	fixation	0	5	1500	0	0	1	1495	1	+	4	0	0	0	0	0	0
2022-07-07	13:53:17	1	3	1	6.5.1	36	2	Reminder_Baseline_CSp	Baseline_CSp	0	5	0	0	0	0	4000	1	+	0	3	Cue32.jpg	0	3	Target32.jpg	0
2022-07-07	13:53:17	1	3	1	6.5.1	36	3	Reminder_Baseline_CSp	valence	0	5	0	0	38	0	2256	1	I found these images to be...	0	0	0	0	0	0	0
2022-07-07	13:53:17	1	3	1	6.5.1	36	4	Reminder_Baseline_CSp	expectancy	0	500	0	0	47	0	2924	1	When you saw the <b>object-scene</b>,   to what <b>degree</b> did you expect the <b>unpleasant sound to occur</b>?	5	0	0	0	0	0	0
2022-07-07	13:53:17	1	3	1	6.5.1	37	1	Reminder_Think_CSm	fixation	0	5	500	0	0	1	495	1	+	3	0	0	0	0	0	0
2022-07-07	13:53:17	1	3	1	6.5.1	37	2	Reminder_Think_CSm	Think_CSm	0	5	0	0	0	0	4000	1	+	0	1	Cue14.jpg	0	1	Target14.jpg	0
2022-07-07	13:53:17	1	3	1	6.5.1	37	3	Reminder_Think_CSm	valence	0	5	0	0	31	0	6597	1	I found these images to be...	0	0	0	0	0	0	0
2022-07-07	13:53:17	1	3	1	6.5.1	37	4	Reminder_Think_CSm	expectancy	0	1500	0	0	27	0	3827	1	When you saw the <b>object-scene</b>,   to what <b>degree</b> did you expect the <b>unpleasant sound to occur</b>?	5	0	0	0	0	0	0
2022-07-07	13:53:17	1	3	1	6.5.1	38	1	Reminder_NoThink_CSm	fixation	0	5	1000	0	0	1	995	1	+	1	0	0	0	0	0	0
2022-07-07	13:53:17	1	3	1	6.5.1	38	2	Reminder_NoThink_CSm	NoThink_CSm	0	5	0	0	0	0	4000	1	+	0	1	Cue25.jpg	0	1	Target25.jpg	0
2022-07-07	13:53:17	1	3	1	6.5.1	38	3	Reminder_NoThink_CSm	valence	0	5	0	0	0	0	3276	1	I found these images to be...	0	0	0	0	0	0	0
2022-07-07	13:53:17	1	3	1	6.5.1	38	4	Reminder_NoThink_CSm	expectancy	0	1000	0	0	43	0	3103	1	When you saw the <b>object-scene</b>,   to what <b>degree</b> did you expect the <b>unpleasant sound to occur</b>?	4	0	0	0	0	0	0
2022-07-07	13:53:17	1	3	1	6.5.1	39	1	Reminder_Objects_CSp	fixation	0	5	1500	0	0	1	1495	1	+	3	0	0	0	0	0	0
2022-07-07	13:53:17	1	3	1	6.5.1	39	2	Reminder_Objects_CSp	Objects_CSp	0	5	0	0	0	0	4000	2	Object2.jpg	0	0	0	0	0	0	0
2022-07-07	13:53:17	1	3	1	6.5.1	39	3	Reminder_Objects_CSp	expectancy_object	0	1000	0	0	29	0	11468	1	When you saw the <b>object</b>,   to what <b>degree</b> did you expect the <b>unpleasant sound to occur</b>?	0	0	0	0	0	0	0
2022-07-07	13:53:17	1	3	1	6.5.1	40	1	Reminder_Think_CSm	fixation	0	5	500	0	0	1	495	1	+	3	0	0	0	0	0	0
2022-07-07	13:53:17	1	3	1	6.5.1	40	2	Reminder_Think_CSm	Think_CSm	0	5	0	0	0	0	4000	1	+	0	4	Cue6.jpg	0	4	Target6.jpg	0
2022-07-07	13:53:17	1	3	1	6.5.1	40	3	Reminder_Think_CSm	valence	0	5	0	0	45	0	5955	1	I found these images to be...	0	0	0	0	0	0	0
2022-07-07	13:53:17	1	3	1	6.5.1	40	4	Reminder_Think_CSm	expectancy	0	1500	0	0	40	0	3338	1	When you saw the <b>object-scene</b>,   to what <b>degree</b> did you expect the <b>unpleasant sound to occur</b>?	5	0	0	0	0	0	0
2022-07-07	13:53:17	1	3	1	6.5.1	41	1	Reminder_Baseline_CSm	fixation	0	5	1000	0	0	1	995	1	+	3	0	0	0	0	0	0
2022-07-07	13:53:17	1	3	1	6.5.1	41	2	Reminder_Baseline_CSm	Baseline_CSm	0	5	0	0	0	0	4000	1	+	0	1	Cue7.jpg	0	1	Target7.jpg	0
2022-07-07	13:53:17	1	3	1	6.5.1	41	3	Reminder_Baseline_CSm	valence	0	5	0	0	9	0	5054	1	I found these images to be...	0	0	0	0	0	0	0
2022-07-07	13:53:17	1	3	1	6.5.1	41	4	Reminder_Baseline_CSm	expectancy	0	1000	0	0	67	0	2834	1	When you saw the <b>object-scene</b>,   to what <b>degree</b> did you expect the <b>unpleasant sound to occur</b>?	7	0	0	0	0	0	0
2022-07-07	13:53:17	1	3	1	6.5.1	42	1	Reminder_Think_CSm	fixation	0	5	1500	0	0	1	1495	1	+	3	0	0	0	0	0	0
2022-07-07	13:53:17	1	3	1	6.5.1	42	2	Reminder_Think_CSm	Think_CSm	0	5	0	0	0	0	4000	1	+	0	2	Cue9.jpg	0	2	Target9.jpg	0
2022-07-07	13:53:17	1	3	1	6.5.1	42	3	Reminder_Think_CSm	valence	0	5	0	0	50	0	2578	1	I found these images to be...	0	0	0	0	0	0	0
2022-07-07	13:53:17	1	3	1	6.5.1	42	4	Reminder_Think_CSm	expectancy	0	500	0	0	41	0	2953	1	When you saw the <b>object-scene</b>,   to what <b>degree</b> did you expect the <b>unpleasant sound to occur</b>?	26	0	0	0	0	0	0
2022-07-07	13:53:17	1	3	1	6.5.1	43	1	Reminder_NoThink_CSm	fixation	0	5	1500	0	0	1	1495	1	+	8	0	0	0	0	0	0
2022-07-07	13:53:17	1	3	1	6.5.1	43	2	Reminder_NoThink_CSm	NoThink_CSm	0	5	0	0	0	0	4000	1	+	0	2	Cue2.jpg	0	2	Target2.jpg	0
2022-07-07	13:53:17	1	3	1	6.5.1	43	3	Reminder_NoThink_CSm	valence	0	5	0	0	0	0	4056	1	I found these images to be...	0	0	0	0	0	0	0
2022-07-07	13:53:17	1	3	1	6.5.1	43	4	Reminder_NoThink_CSm	expectancy	0	1000	0	0	37	0	4492	1	When you saw the <b>object-scene</b>,   to what <b>degree</b> did you expect the <b>unpleasant sound to occur</b>?	17	0	0	0	0	0	0
2022-07-07	13:53:17	1	3	1	6.5.1	44	1	Reminder_Baseline_CSp	fixation	0	5	500	0	0	1	495	1	+	3	0	0	0	0	0	0
2022-07-07	13:53:17	1	3	1	6.5.1	44	2	Reminder_Baseline_CSp	Baseline_CSp	0	5	0	0	0	0	4000	1	+	0	4	Cue31.jpg	0	4	Target31.jpg	0
2022-07-07	13:53:17	1	3	1	6.5.1	44	3	Reminder_Baseline_CSp	valence	0	5	0	0	31	0	3074	1	I found these images to be...	0	0	0	0	0	0	0
2022-07-07	13:53:17	1	3	1	6.5.1	44	4	Reminder_Baseline_CSp	expectancy	0	1500	0	0	34	0	1789	1	When you saw the <b>object-scene</b>,   to what <b>degree</b> did you expect the <b>unpleasant sound to occur</b>?	5	0	0	0	0	0	0
2022-07-07	13:53:17	1	3	1	6.5.1	45	1	Reminder_Objects_CSm	fixation	0	5	1000	0	0	1	995	1	+	1	0	0	0	0	0	0
2022-07-07	13:53:17	1	3	1	6.5.1	45	2	Reminder_Objects_CSm	Objects_CSm	0	5	0	0	0	0	4000	2	Object8.jpg	0	0	0	0	0	0	0
2022-07-07	13:53:17	1	3	1	6.5.1	45	3	Reminder_Objects_CSm	expectancy_object	0	1500	0	0	39	0	4599	1	When you saw the <b>object</b>,   to what <b>degree</b> did you expect the <b>unpleasant sound to occur</b>?	0	0	0	0	0	0	0
2022-07-07	13:53:17	1	3	1	6.5.1	46	1	Reminder_Baseline_CSm	fixation	0	5	1500	0	0	1	1495	1	+	3	0	0	0	0	0	0
2022-07-07	13:53:17	1	3	1	6.5.1	46	2	Reminder_Baseline_CSm	Baseline_CSm	0	5	0	0	0	0	4000	1	+	0	5	Cue16.jpg	0	5	Target16.jpg	0
2022-07-07	13:53:17	1	3	1	6.5.1	46	3	Reminder_Baseline_CSm	valence	0	5	0	0	40	0	4293	1	I found these images to be...	0	0	0	0	0	0	0
2022-07-07	13:53:17	1	3	1	6.5.1	46	4	Reminder_Baseline_CSm	expectancy	0	500	0	0	34	0	3254	1	When you saw the <b>object-scene</b>,   to what <b>degree</b> did you expect the <b>unpleasant sound to occur</b>?	21	0	0	0	0	0	0
2022-07-07	13:53:17	1	3	1	6.5.1	47	1	Reminder_Objects_CSp	fixation	0	5	500	0	0	1	495	1	+	3	0	0	0	0	0	0
2022-07-07	13:53:17	1	3	1	6.5.1	47	2	Reminder_Objects_CSp	Objects_CSp	0	5	0	0	0	0	4000	4	Object3.jpg	0	0	0	0	0	0	0
2022-07-07	13:53:17	1	3	1	6.5.1	47	3	Reminder_Objects_CSp	expectancy_object	0	1000	0	0	41	0	6186	1	When you saw the <b>object</b>,   to what <b>degree</b> did you expect the <b>unpleasant sound to occur</b>?	0	0	0	0	0	0	0
2022-07-07	13:53:17	1	3	1	6.5.1	48	1	Reminder_NoThink_CSm	fixation	0	5	1000	0	0	1	995	1	+	3	0	0	0	0	0	0
2022-07-07	13:53:17	1	3	1	6.5.1	48	2	Reminder_NoThink_CSm	NoThink_CSm	0	5	0	0	0	0	4000	1	+	0	5	Cue30.jpg	0	5	Target30.jpg	0
2022-07-07	13:53:17	1	3	1	6.5.1	48	3	Reminder_NoThink_CSm	valence	0	5	0	0	10	0	4512	1	I found these images to be...	0	0	0	0	0	0	0
2022-07-07	13:53:17	1	3	1	6.5.1	48	4	Reminder_NoThink_CSm	expectancy	0	1000	0	0	40	0	3530	1	When you saw the <b>object-scene</b>,   to what <b>degree</b> did you expect the <b>unpleasant sound to occur</b>?	5	0	0	0	0	0	0
2022-07-07	13:53:17	1	3	1	6.5.1	1	1	Practice_NoThink	fixation	0	5	1000	0	0	1	995	1	+	17	0	0	0	0	0	0
2022-07-07	13:53:17	1	3	1	6.5.1	1	2	Practice_NoThink	NoThink	0	5	0	0	0	0	1000	1	DON'T THINK	8	0	0	0	0	0	0
2022-07-07	13:53:17	1	3	1	6.5.1	1	3	Practice_NoThink	NoThinkCue	0	5	0	0	0	1	3000	2	Cue40.jpg	0	0	0	0	0	0	0
2022-07-07	13:53:17	1	3	1	6.5.1	1	4	Practice_NoThink	Intrusion	0	1000	3000	0	80	1	1369	1	How <b>often</b> did you <b>think</b> about the <b>scene</b>?   <center><br><b>NEVER (1)    BRIEFLY (2)   OFTEN (3) </b>	2	0	0	0	0	0	0
2022-07-07	13:53:17	1	3	1	6.5.1	2	1	Practice_NoThink	fixation	0	5	500	0	0	1	495	1	+	8	0	0	0	0	0	0
2022-07-07	13:53:17	1	3	1	6.5.1	2	2	Practice_NoThink	NoThink	0	5	0	0	0	0	1000	1	DON'T THINK	8	0	0	0	0	0	0
2022-07-07	13:53:17	1	3	1	6.5.1	2	3	Practice_NoThink	NoThinkCue	0	5	0	0	0	1	3000	1	Cue39.jpg	0	0	0	0	0	0	0
2022-07-07	13:53:17	1	3	1	6.5.1	2	4	Practice_NoThink	Intrusion	0	500	3000	0	80	1	1403	1	How <b>often</b> did you <b>think</b> about the <b>scene</b>?   <center><br><b>NEVER (1)    BRIEFLY (2)   OFTEN (3) </b>	0	0	0	0	0	0	0
2022-07-07	13:53:17	1	3	1	6.5.1	3	1	Practice_Think	fixation	0	5	1500	0	0	1	1495	1	+	8	0	0	0	0	0	0
2022-07-07	13:53:17	1	3	1	6.5.1	3	2	Practice_Think	Think	0	5	0	0	0	0	1000	1	THINK	8	0	0	0	0	0	0
2022-07-07	13:53:17	1	3	1	6.5.1	3	3	Practice_Think	ThinkCue	0	5	0	0	0	1	6000	1	Cue37.jpg	0	0	0	0	0	0	0
2022-07-07	13:53:17	1	3	1	6.5.1	3	4	Practice_Think	Intrusion	0	1500	3000	0	81	1	1372	1	How <b>often</b> did you <b>think</b> about the <b>scene</b>?   <center><br><b>NEVER (1)    BRIEFLY (2)   OFTEN (3) </b>	0	0	0	0	0	0	0
2022-07-07	13:53:17	1	3	1	6.5.1	4	1	Practice_Think	fixation	0	5	1500	0	0	1	1495	1	+	8	0	0	0	0	0	0
2022-07-07	13:53:17	1	3	1	6.5.1	4	2	Practice_Think	Think	0	5	0	0	0	0	1000	1	THINK	8	0	0	0	0	0	0
2022-07-07	13:53:17	1	3	1	6.5.1	4	3	Practice_Think	ThinkCue	0	5	0	0	0	1	6000	2	Cue38.jpg	0	0	0	0	0	0	0
2022-07-07	13:53:17	1	3	1	6.5.1	4	4	Practice_Think	Intrusion	0	1000	3000	0	81	1	1166	1	How <b>often</b> did you <b>think</b> about the <b>scene</b>?   <center><br><b>NEVER (1)    BRIEFLY (2)   OFTEN (3) </b>	0	0	0	0	0	0	0
2022-07-07	13:53:17	1	3	1	6.5.1	5	1	Practice_Betweenblocks1	Practice_Betweenblocks1	0	5	0	0	57	1	40731	1	<center><br><br><br><br>This is the end of the first practice round. <br><br>There will be 2 more practice rounds.  <br><br> Please await further instruction from the experimenter.	10	0	0	0	0	0	0
2022-07-07	13:53:17	1	3	1	6.5.1	6	1	Practice_NoThink	fixation	0	5	1000	0	0	1	995	1	+	18	0	0	0	0	0	0
2022-07-07	13:53:17	1	3	1	6.5.1	6	2	Practice_NoThink	NoThink	0	5	0	0	0	0	1000	1	DON'T THINK	0	0	0	0	0	0	0
2022-07-07	13:53:17	1	3	1	6.5.1	6	3	Practice_NoThink	NoThinkCue	0	5	0	0	0	1	3000	2	Cue40.jpg	0	0	0	0	0	0	0
2022-07-07	13:53:17	1	3	1	6.5.1	6	4	Practice_NoThink	Intrusion	0	500	3000	0	79	1	1291	1	How <b>often</b> did you <b>think</b> about the <b>scene</b>?   <center><br><b>NEVER (1)    BRIEFLY (2)   OFTEN (3) </b>	0	0	0	0	0	0	0
2022-07-07	13:53:17	1	3	1	6.5.1	7	1	Practice_Think	fixation	0	5	500	0	0	1	495	1	+	8	0	0	0	0	0	0
2022-07-07	13:53:17	1	3	1	6.5.1	7	2	Practice_Think	Think	0	5	0	0	0	0	1000	1	THINK	8	0	0	0	0	0	0
2022-07-07	13:53:17	1	3	1	6.5.1	7	3	Practice_Think	ThinkCue	0	5	0	0	0	1	6000	1	Cue37.jpg	0	0	0	0	0	0	0
2022-07-07	13:53:17	1	3	1	6.5.1	7	4	Practice_Think	Intrusion	0	1500	3000	0	81	1	1412	1	How <b>often</b> did you <b>think</b> about the <b>scene</b>?   <center><br><b>NEVER (1)    BRIEFLY (2)   OFTEN (3) </b>	0	0	0	0	0	0	0
2022-07-07	13:53:17	1	3	1	6.5.1	8	1	Practice_Think	fixation	0	5	1000	0	0	1	995	1	+	8	0	0	0	0	0	0
2022-07-07	13:53:17	1	3	1	6.5.1	8	2	Practice_Think	Think	0	5	0	0	0	0	1000	1	THINK	8	0	0	0	0	0	0
2022-07-07	13:53:17	1	3	1	6.5.1	8	3	Practice_Think	ThinkCue	0	5	0	0	0	1	6000	2	Cue38.jpg	0	0	0	0	0	0	0
2022-07-07	13:53:17	1	3	1	6.5.1	8	4	Practice_Think	Intrusion	0	1500	3000	0	0	0	1500	1	How <b>often</b> did you <b>think</b> about the <b>scene</b>?   <center><br><b>NEVER (1)    BRIEFLY (2)   OFTEN (3) </b>	0	0	0	0	0	0	0
2022-07-07	13:53:17	1	3	1	6.5.1	9	1	Practice_NoThink	fixation	0	5	1500	0	0	1	1495	1	+	8	0	0	0	0	0	0
2022-07-07	13:53:17	1	3	1	6.5.1	9	2	Practice_NoThink	NoThink	0	5	0	0	0	0	1000	1	DON'T THINK	8	0	0	0	0	0	0
2022-07-07	13:53:17	1	3	1	6.5.1	9	3	Practice_NoThink	NoThinkCue	0	5	0	0	0	1	3000	1	Cue39.jpg	0	0	0	0	0	0	0
2022-07-07	13:53:17	1	3	1	6.5.1	9	4	Practice_NoThink	Intrusion	0	1000	3000	0	79	1	995	1	How <b>often</b> did you <b>think</b> about the <b>scene</b>?   <center><br><b>NEVER (1)    BRIEFLY (2)   OFTEN (3) </b>	0	0	0	0	0	0	0
2022-07-07	13:53:17	1	3	1	6.5.1	10	1	Practice_Betweenblocks2	Practice_Betweenblocks2	0	5	0	0	57	1	8825	1	<center><br><br><br><br>This is the end of the second practice round. <br><br>There will be 1 more practice round.  <br><br> Please await further instruction from the experimenter.	17	0	0	0	0	0	0
2022-07-07	13:53:17	1	3	1	6.5.1	11	1	Practice_Think	fixation	0	5	500	0	0	1	495	1	+	17	0	0	0	0	0	0
2022-07-07	13:53:17	1	3	1	6.5.1	11	2	Practice_Think	Think	0	5	0	0	0	0	1000	1	THINK	8	0	0	0	0	0	0
2022-07-07	13:53:17	1	3	1	6.5.1	11	3	Practice_Think	ThinkCue	0	5	0	0	0	1	6000	1	Cue37.jpg	0	0	0	0	0	0	0
2022-07-07	13:53:17	1	3	1	6.5.1	11	4	Practice_Think	Intrusion	0	500	3000	0	81	1	2233	1	How <b>often</b> did you <b>think</b> about the <b>scene</b>?   <center><br><b>NEVER (1)    BRIEFLY (2)   OFTEN (3) </b>	0	0	0	0	0	0	0
2022-07-07	13:53:17	1	3	1	6.5.1	12	1	Practice_NoThink	fixation	0	5	500	0	0	1	495	1	+	8	0	0	0	0	0	0
2022-07-07	13:53:17	1	3	1	6.5.1	12	2	Practice_NoThink	NoThink	0	5	0	0	0	0	1000	1	DON'T THINK	8	0	0	0	0	0	0
2022-07-07	13:53:17	1	3	1	6.5.1	12	3	Practice_NoThink	NoThinkCue	0	5	0	0	0	1	3000	2	Cue40.jpg	0	0	0	0	0	0	0
2022-07-07	13:53:17	1	3	1	6.5.1	12	4	Practice_NoThink	Intrusion	0	1500	3000	0	80	1	842	1	How <b>often</b> did you <b>think</b> about the <b>scene</b>?   <center><br><b>NEVER (1)    BRIEFLY (2)   OFTEN (3) </b>	0	0	0	0	0	0	0
2022-07-07	13:53:17	1	3	1	6.5.1	13	1	Practice_Think	fixation	0	5	1000	0	0	1	995	1	+	8	0	0	0	0	0	0
2022-07-07	13:53:17	1	3	1	6.5.1	13	2	Practice_Think	Think	0	5	0	0	0	0	1000	1	THINK	9	0	0	0	0	0	0
2022-07-07	13:53:17	1	3	1	6.5.1	13	3	Practice_Think	ThinkCue	0	5	0	0	0	1	6000	2	Cue38.jpg	0	0	0	0	0	0	0
2022-07-07	13:53:17	1	3	1	6.5.1	13	4	Practice_Think	Intrusion	0	1000	3000	0	81	1	1168	1	How <b>often</b> did you <b>think</b> about the <b>scene</b>?   <center><br><b>NEVER (1)    BRIEFLY (2)   OFTEN (3) </b>	0	0	0	0	0	0	0
2022-07-07	13:53:17	1	3	1	6.5.1	14	1	Practice_NoThink	fixation	0	5	1500	0	0	1	1495	1	+	8	0	0	0	0	0	0
2022-07-07	13:53:17	1	3	1	6.5.1	14	2	Practice_NoThink	NoThink	0	5	0	0	0	0	1000	1	DON'T THINK	8	0	0	0	0	0	0
2022-07-07	13:53:17	1	3	1	6.5.1	14	3	Practice_NoThink	NoThinkCue	0	5	0	0	0	1	3000	1	Cue39.jpg	0	0	0	0	0	0	0
2022-07-07	13:53:17	1	3	1	6.5.1	14	4	Practice_NoThink	Intrusion	0	500	3000	0	79	1	553	1	How <b>often</b> did you <b>think</b> about the <b>scene</b>?   <center><br><b>NEVER (1)    BRIEFLY (2)   OFTEN (3) </b>	0	0	0	0	0	0	0
2022-07-07	13:53:17	1	3	1	6.5.1	1	1	TNT_Object_CSp	fixation	0	5	1500	0	0	1	1495	1	+	18	0	0	0	0	0	0
2022-07-07	13:53:17	1	3	1	6.5.1	1	2	TNT_Object_CSp	Passive	0	5	0	0	0	0	1000	1	VIEW	0	0	0	0	0	0	0
2022-07-07	13:53:17	1	3	1	6.5.1	1	3	TNT_Object_CSp	TNT_Object_CSp	0	500	0	0	0	0	3000	3	Object4.jpg	0	0	0	0	0	0	0
2022-07-07	13:53:17	1	3	1	6.5.1	2	1	TNT_NoThink_CSp	fixation	0	5	1000	0	0	1	995	1	+	8	0	0	0	0	0	0
2022-07-07	13:53:17	1	3	1	6.5.1	2	2	TNT_NoThink_CSp	NoThink	0	5	0	0	0	0	1000	1	DON'T THINK	0	0	0	0	0	0	0
2022-07-07	13:53:17	1	3	1	6.5.1	2	3	TNT_NoThink_CSp	TNT_NoThink_CSp	0	5	0	0	0	0	3000	1	Cue22.jpg	0	0	0	0	0	0	0
2022-07-07	13:53:17	1	3	1	6.5.1	2	4	TNT_NoThink_CSp	Intrusion	0	500	3000	0	80	1	558	1	How <b>often</b> did you <b>think</b> about the <b>scene</b>?   <center><br><b>NEVER (1)    BRIEFLY (2)   OFTEN (3) </b>	0	0	0	0	0	0	0
2022-07-07	13:53:17	1	3	1	6.5.1	3	1	TNT_NoThink_CSm	fixation	0	5	500	0	0	1	495	1	+	8	0	0	0	0	0	0
2022-07-07	13:53:17	1	3	1	6.5.1	3	2	TNT_NoThink_CSm	NoThink	0	5	0	0	0	0	1000	1	DON'T THINK	8	0	0	0	0	0	0
2022-07-07	13:53:17	1	3	1	6.5.1	3	3	TNT_NoThink_CSm	TNT_NoThink_CSm	0	5	0	0	0	0	3000	2	Cue2.jpg	0	0	0	0	0	0	0
2022-07-07	13:53:17	1	3	1	6.5.1	3	4	TNT_NoThink_CSm	Intrusion	0	1000	3000	0	79	1	512	1	How <b>often</b> did you <b>think</b> about the <b>scene</b>?   <center><br><b>NEVER (1)    BRIEFLY (2)   OFTEN (3) </b>	0	0	0	0	0	0	0
2022-07-07	13:53:17	1	3	1	6.5.1	4	1	TNT_Object_CSp	fixation	0	5	1000	0	0	1	995	1	+	8	0	0	0	0	0	0
2022-07-07	13:53:17	1	3	1	6.5.1	4	2	TNT_Object_CSp	Passive	0	5	0	0	0	0	1000	1	VIEW	8	0	0	0	0	0	0
2022-07-07	13:53:17	1	3	1	6.5.1	4	3	TNT_Object_CSp	TNT_Object_CSp	0	1500	0	0	0	0	3000	1	Object1.jpg	0	0	0	0	0	0	0
2022-07-07	13:53:17	1	3	1	6.5.1	5	1	TNT_Think_CSm	fixation	0	5	500	0	0	1	495	1	+	8	0	0	0	0	0	0
2022-07-07	13:53:17	1	3	1	6.5.1	5	2	TNT_Think_CSm	Think	0	5	0	0	0	0	1000	1	THINK	0	0	0	0	0	0	0
2022-07-07	13:53:17	1	3	1	6.5.1	5	3	TNT_Think_CSm	TNT_Think_CSm	0	5	0	0	0	0	6000	5	Cue36.jpg	0	0	0	0	0	0	0
2022-07-07	13:53:17	1	3	1	6.5.1	5	4	TNT_Think_CSm	Intrusion	0	1500	3000	0	81	1	1363	1	How <b>often</b> did you <b>think</b> about the <b>scene</b>?   <center><br><b>NEVER (1)    BRIEFLY (2)   OFTEN (3) </b>	0	0	0	0	0	0	0
2022-07-07	13:53:17	1	3	1	6.5.1	6	1	TNT_NoThink_CSp	fixation	0	5	1500	0	0	1	1495	1	+	8	0	0	0	0	0	0
2022-07-07	13:53:17	1	3	1	6.5.1	6	2	TNT_NoThink_CSp	NoThink	0	5	0	0	0	0	1000	1	DON'T THINK	9	0	0	0	0	0	0
2022-07-07	13:53:17	1	3	1	6.5.1	6	3	TNT_NoThink_CSp	TNT_NoThink_CSp	0	5	0	0	0	0	3000	5	Cue35.jpg	0	0	0	0	0	0	0
2022-07-07	13:53:17	1	3	1	6.5.1	6	4	TNT_NoThink_CSp	Intrusion	0	1500	3000	0	79	1	1308	1	How <b>often</b> did you <b>think</b> about the <b>scene</b>?   <center><br><b>NEVER (1)    BRIEFLY (2)   OFTEN (3) </b>	0	0	0	0	0	0	0
2022-07-07	13:53:17	1	3	1	6.5.1	7	1	TNT_Object_CSp	fixation	0	5	1500	0	0	1	1495	1	+	8	0	0	0	0	0	0
2022-07-07	13:53:17	1	3	1	6.5.1	7	2	TNT_Object_CSp	Passive	0	5	0	0	0	0	1000	1	VIEW	8	0	0	0	0	0	0
2022-07-07	13:53:17	1	3	1	6.5.1	7	3	TNT_Object_CSp	TNT_Object_CSp	0	1000	0	0	0	0	3000	2	Object2.jpg	0	0	0	0	0	0	0
2022-07-07	13:53:17	1	3	1	6.5.1	8	1	TNT_Think_CSp	fixation	0	5	1000	0	0	1	995	1	+	8	0	0	0	0	0	0
2022-07-07	13:53:17	1	3	1	6.5.1	8	2	TNT_Think_CSp	Think	0	5	0	0	0	0	1000	1	THINK	0	0	0	0	0	0	0
2022-07-07	13:53:17	1	3	1	6.5.1	8	3	TNT_Think_CSp	TNT_Think_CSp	0	5	0	0	0	0	6000	5	Cue17.jpg	0	0	0	0	0	0	0
2022-07-07	13:53:17	1	3	1	6.5.1	8	4	TNT_Think_CSp	Intrusion	0	500	3000	0	81	1	1948	1	How <b>often</b> did you <b>think</b> about the <b>scene</b>?   <center><br><b>NEVER (1)    BRIEFLY (2)   OFTEN (3) </b>	0	0	0	0	0	0	0
2022-07-07	13:53:17	1	3	1	6.5.1	9	1	TNT_Object_CSm	fixation	0	5	500	0	0	1	495	1	+	8	0	0	0	0	0	0
2022-07-07	13:53:17	1	3	1	6.5.1	9	2	TNT_Object_CSm	Passive	0	5	0	0	0	0	1000	1	VIEW	8	0	0	0	0	0	0
2022-07-07	13:53:17	1	3	1	6.5.1	9	3	TNT_Object_CSm	TNT_Object_CSm	0	500	0	0	0	0	3000	1	Object7.jpg	0	0	0	0	0	0	0
2022-07-07	13:53:17	1	3	1	6.5.1	10	1	TNT_Think_CSm	fixation	0	5	500	0	0	1	495	1	+	8	0	0	0	0	0	0
2022-07-07	13:53:17	1	3	1	6.5.1	10	2	TNT_Think_CSm	Think	0	5	0	0	0	0	1000	1	THINK	0	0	0	0	0	0	0
2022-07-07	13:53:17	1	3	1	6.5.1	10	3	TNT_Think_CSm	TNT_Think_CSm	0	5	0	0	0	0	6000	3	Cue20.jpg	0	0	0	0	0	0	0
2022-07-07	13:53:17	1	3	1	6.5.1	10	4	TNT_Think_CSm	Intrusion	0	1000	3000	0	81	1	1644	1	How <b>often</b> did you <b>think</b> about the <b>scene</b>?   <center><br><b>NEVER (1)    BRIEFLY (2)   OFTEN (3) </b>	0	0	0	0	0	0	0
2022-07-07	13:53:17	1	3	1	6.5.1	11	1	TNT_Think_CSp	fixation	0	5	1000	0	0	1	995	1	+	8	0	0	0	0	0	0
2022-07-07	13:53:17	1	3	1	6.5.1	11	2	TNT_Think_CSp	Think	0	5	0	0	0	0	1000	1	THINK	8	0	0	0	0	0	0
2022-07-07	13:53:17	1	3	1	6.5.1	11	3	TNT_Think_CSp	TNT_Think_CSp	0	5	0	0	0	0	6000	2	Cue18.jpg	0	0	0	0	0	0	0
2022-07-07	13:53:17	1	3	1	6.5.1	11	4	TNT_Think_CSp	Intrusion	0	1000	3000	0	81	1	977	1	How <b>often</b> did you <b>think</b> about the <b>scene</b>?   <center><br><b>NEVER (1)    BRIEFLY (2)   OFTEN (3) </b>	0	0	0	0	0	0	0
2022-07-07	13:53:17	1	3	1	6.5.1	12	1	TNT_NoThink_CSp	fixation	0	5	1500	0	0	1	1495	1	+	8	0	0	0	0	0	0
2022-07-07	13:53:17	1	3	1	6.5.1	12	2	TNT_NoThink_CSp	NoThink	0	5	0	0	0	0	1000	1	DON'T THINK	8	0	0	0	0	0	0
2022-07-07	13:53:17	1	3	1	6.5.1	12	3	TNT_NoThink_CSp	TNT_NoThink_CSp	0	5	0	0	0	0	3000	6	Cue24.jpg	0	0	0	0	0	0	0
2022-07-07	13:53:17	1	3	1	6.5.1	12	4	TNT_NoThink_CSp	Intrusion	0	1500	3000	0	79	1	1211	1	How <b>often</b> did you <b>think</b> about the <b>scene</b>?   <center><br><b>NEVER (1)    BRIEFLY (2)   OFTEN (3) </b>	0	0	0	0	0	0	0
2022-07-07	13:53:17	1	3	1	6.5.1	13	1	TNT_Think_CSp	fixation	0	5	1500	0	0	1	1495	1	+	8	0	0	0	0	0	0
2022-07-07	13:53:17	1	3	1	6.5.1	13	2	TNT_Think_CSp	Think	0	5	0	0	0	0	1000	1	THINK	8	0	0	0	0	0	0
2022-07-07	13:53:17	1	3	1	6.5.1	13	3	TNT_Think_CSp	TNT_Think_CSp	0	5	0	0	0	0	6000	3	Cue27.jpg	0	0	0	0	0	0	0
2022-07-07	13:53:17	1	3	1	6.5.1	13	4	TNT_Think_CSp	Intrusion	0	500	3000	0	81	1	988	1	How <b>often</b> did you <b>think</b> about the <b>scene</b>?   <center><br><b>NEVER (1)    BRIEFLY (2)   OFTEN (3) </b>	0	0	0	0	0	0	0
2022-07-07	13:53:17	1	3	1	6.5.1	14	1	TNT_Think_CSm	fixation	0	5	500	0	0	1	495	1	+	8	0	0	0	0	0	0
2022-07-07	13:53:17	1	3	1	6.5.1	14	2	TNT_Think_CSm	Think	0	5	0	0	0	0	1000	1	THINK	8	0	0	0	0	0	0
2022-07-07	13:53:17	1	3	1	6.5.1	14	3	TNT_Think_CSm	TNT_Think_CSm	0	5	0	0	0	0	6000	1	Cue14.jpg	0	0	0	0	0	0	0
2022-07-07	13:53:17	1	3	1	6.5.1	14	4	TNT_Think_CSm	Intrusion	0	1000	3000	0	81	1	1190	1	How <b>often</b> did you <b>think</b> about the <b>scene</b>?   <center><br><b>NEVER (1)    BRIEFLY (2)   OFTEN (3) </b>	0	0	0	0	0	0	0
2022-07-07	13:53:17	1	3	1	6.5.1	15	1	TNT_Think_CSm	fixation	0	5	1000	0	0	1	995	1	+	8	0	0	0	0	0	0
2022-07-07	13:53:17	1	3	1	6.5.1	15	2	TNT_Think_CSm	Think	0	5	0	0	0	0	1000	1	THINK	8	0	0	0	0	0	0
2022-07-07	13:53:17	1	3	1	6.5.1	15	3	TNT_Think_CSm	TNT_Think_CSm	0	5	0	0	0	0	6000	4	Cue6.jpg	0	0	0	0	0	0	0
2022-07-07	13:53:17	1	3	1	6.5.1	15	4	TNT_Think_CSm	Intrusion	0	500	3000	0	81	1	587	1	How <b>often</b> did you <b>think</b> about the <b>scene</b>?   <center><br><b>NEVER (1)    BRIEFLY (2)   OFTEN (3) </b>	0	0	0	0	0	0	0
2022-07-07	13:53:17	1	3	1	6.5.1	16	1	TNT_NoThink_CSp	fixation	0	5	1500	0	0	1	1495	1	+	8	0	0	0	0	0	0
2022-07-07	13:53:17	1	3	1	6.5.1	16	2	TNT_NoThink_CSp	NoThink	0	5	0	0	0	0	1000	1	DON'T THINK	8	0	0	0	0	0	0
2022-07-07	13:53:17	1	3	1	6.5.1	16	3	TNT_NoThink_CSp	TNT_NoThink_CSp	0	5	0	0	0	0	3000	4	Cue4.jpg	0	0	0	0	0	0	0
2022-07-07	13:53:17	1	3	1	6.5.1	16	4	TNT_NoThink_CSp	Intrusion	0	1500	3000	0	79	1	788	1	How <b>often</b> did you <b>think</b> about the <b>scene</b>?   <center><br><b>NEVER (1)    BRIEFLY (2)   OFTEN (3) </b>	0	0	0	0	0	0	0
2022-07-07	13:53:17	1	3	1	6.5.1	17	1	TNT_NoThink_CSm	fixation	0	5	1000	0	0	1	995	1	+	8	0	0	0	0	0	0
2022-07-07	13:53:17	1	3	1	6.5.1	17	2	TNT_NoThink_CSm	NoThink	0	5	0	0	0	0	1000	1	DON'T THINK	8	0	0	0	0	0	0
2022-07-07	13:53:17	1	3	1	6.5.1	17	3	TNT_NoThink_CSm	TNT_NoThink_CSm	0	5	0	0	0	0	3000	5	Cue30.jpg	0	0	0	0	0	0	0
2022-07-07	13:53:17	1	3	1	6.5.1	17	4	TNT_NoThink_CSm	Intrusion	0	1000	3000	0	79	1	754	1	How <b>often</b> did you <b>think</b> about the <b>scene</b>?   <center><br><b>NEVER (1)    BRIEFLY (2)   OFTEN (3) </b>	0	0	0	0	0	0	0
2022-07-07	13:53:17	1	3	1	6.5.1	18	1	TNT_NoThink_CSm	fixation	0	5	500	0	0	1	495	1	+	8	0	0	0	0	0	0
2022-07-07	13:53:17	1	3	1	6.5.1	18	2	TNT_NoThink_CSm	NoThink	0	5	0	0	0	0	1000	1	DON'T THINK	8	0	0	0	0	0	0
2022-07-07	13:53:17	1	3	1	6.5.1	18	3	TNT_NoThink_CSm	TNT_NoThink_CSm	0	5	0	0	0	0	3000	3	Cue1.jpg	0	0	0	0	0	0	0
2022-07-07	13:53:17	1	3	1	6.5.1	18	4	TNT_NoThink_CSm	Intrusion	0	1500	3000	0	79	1	675	1	How <b>often</b> did you <b>think</b> about the <b>scene</b>?   <center><br><b>NEVER (1)    BRIEFLY (2)   OFTEN (3) </b>	0	0	0	0	0	0	0
2022-07-07	13:53:17	1	3	1	6.5.1	19	1	TNT_Object_CSm	fixation	0	5	1000	0	0	1	995	1	+	8	0	0	0	0	0	0
2022-07-07	13:53:17	1	3	1	6.5.1	19	2	TNT_Object_CSm	Passive	0	5	0	0	0	0	1000	1	VIEW	8	0	0	0	0	0	0
2022-07-07	13:53:17	1	3	1	6.5.1	19	3	TNT_Object_CSm	TNT_Object_CSm	0	1500	0	0	0	0	3000	2	Object8.jpg	0	0	0	0	0	0	0
2022-07-07	13:53:17	1	3	1	6.5.1	20	1	TNT_Think_CSm	fixation	0	5	500	0	0	1	495	1	+	8	0	0	0	0	0	0
2022-07-07	13:53:17	1	3	1	6.5.1	20	2	TNT_Think_CSm	Think	0	5	0	0	0	0	1000	1	THINK	0	0	0	0	0	0	0
2022-07-07	13:53:17	1	3	1	6.5.1	20	3	TNT_Think_CSm	TNT_Think_CSm	0	5	0	0	0	0	6000	6	Cue10.jpg	0	0	0	0	0	0	0
2022-07-07	13:53:17	1	3	1	6.5.1	20	4	TNT_Think_CSm	Intrusion	0	500	3000	0	81	1	2311	1	How <b>often</b> did you <b>think</b> about the <b>scene</b>?   <center><br><b>NEVER (1)    BRIEFLY (2)   OFTEN (3) </b>	0	0	0	0	0	0	0
2022-07-07	13:53:17	1	3	1	6.5.1	21	1	TNT_Think_CSm	fixation	0	5	1500	0	0	1	1495	1	+	8	0	0	0	0	0	0
2022-07-07	13:53:17	1	3	1	6.5.1	21	2	TNT_Think_CSm	Think	0	5	0	0	0	0	1000	1	THINK	9	0	0	0	0	0	0
2022-07-07	13:53:17	1	3	1	6.5.1	21	3	TNT_Think_CSm	TNT_Think_CSm	0	5	0	0	0	0	6000	2	Cue9.jpg	0	0	0	0	0	0	0
2022-07-07	13:53:17	1	3	1	6.5.1	21	4	TNT_Think_CSm	Intrusion	0	500	3000	0	81	1	984	1	How <b>often</b> did you <b>think</b> about the <b>scene</b>?   <center><br><b>NEVER (1)    BRIEFLY (2)   OFTEN (3) </b>	0	0	0	0	0	0	0
2022-07-07	13:53:17	1	3	1	6.5.1	22	1	TNT_NoThink_CSp	fixation	0	5	500	0	0	1	495	1	+	8	0	0	0	0	0	0
2022-07-07	13:53:17	1	3	1	6.5.1	22	2	TNT_NoThink_CSp	NoThink	0	5	0	0	0	0	1000	1	DON'T THINK	8	0	0	0	0	0	0
2022-07-07	13:53:17	1	3	1	6.5.1	22	3	TNT_NoThink_CSp	TNT_NoThink_CSp	0	5	0	0	0	0	3000	3	Cue5.jpg	0	0	0	0	0	0	0
2022-07-07	13:53:17	1	3	1	6.5.1	22	4	TNT_NoThink_CSp	Intrusion	0	1500	3000	0	79	1	986	1	How <b>often</b> did you <b>think</b> about the <b>scene</b>?   <center><br><b>NEVER (1)    BRIEFLY (2)   OFTEN (3) </b>	0	0	0	0	0	0	0
2022-07-07	13:53:17	1	3	1	6.5.1	23	1	TNT_Object_CSp	fixation	0	5	1000	0	0	1	995	1	+	8	0	0	0	0	0	0
2022-07-07	13:53:17	1	3	1	6.5.1	23	2	TNT_Object_CSp	Passive	0	5	0	0	0	0	1000	1	VIEW	9	0	0	0	0	0	0
2022-07-07	13:53:17	1	3	1	6.5.1	23	3	TNT_Object_CSp	TNT_Object_CSp	0	500	0	0	0	0	3000	4	Object3.jpg	0	0	0	0	0	0	0
2022-07-07	13:53:17	1	3	1	6.5.1	24	1	TNT_Think_CSp	fixation	0	5	1500	0	0	1	1495	1	+	8	0	0	0	0	0	0
2022-07-07	13:53:17	1	3	1	6.5.1	24	2	TNT_Think_CSp	Think	0	5	0	0	0	0	1000	1	THINK	0	0	0	0	0	0	0
2022-07-07	13:53:17	1	3	1	6.5.1	24	3	TNT_Think_CSp	TNT_Think_CSp	0	5	0	0	0	0	6000	6	Cue19.jpg	0	0	0	0	0	0	0
2022-07-07	13:53:17	1	3	1	6.5.1	24	4	TNT_Think_CSp	Intrusion	0	1000	3000	0	81	1	1693	1	How <b>often</b> did you <b>think</b> about the <b>scene</b>?   <center><br><b>NEVER (1)    BRIEFLY (2)   OFTEN (3) </b>	0	0	0	0	0	0	0
2022-07-07	13:53:17	1	3	1	6.5.1	25	1	TNT_Think_CSp	fixation	0	5	1000	0	0	1	995	1	+	8	0	0	0	0	0	0
2022-07-07	13:53:17	1	3	1	6.5.1	25	2	TNT_Think_CSp	Think	0	5	0	0	0	0	1000	1	THINK	8	0	0	0	0	0	0
2022-07-07	13:53:17	1	3	1	6.5.1	25	3	TNT_Think_CSp	TNT_Think_CSp	0	5	0	0	0	0	6000	4	Cue34.jpg	0	0	0	0	0	0	0
2022-07-07	13:53:17	1	3	1	6.5.1	25	4	TNT_Think_CSp	Intrusion	0	1000	3000	0	81	1	1379	1	How <b>often</b> did you <b>think</b> about the <b>scene</b>?   <center><br><b>NEVER (1)    BRIEFLY (2)   OFTEN (3) </b>	0	0	0	0	0	0	0
2022-07-07	13:53:17	1	3	1	6.5.1	26	1	TNT_NoThink_CSm	fixation	0	5	500	0	0	1	495	1	+	8	0	0	0	0	0	0
2022-07-07	13:53:17	1	3	1	6.5.1	26	2	TNT_NoThink_CSm	NoThink	0	5	0	0	0	0	1000	1	DON'T THINK	9	0	0	0	0	0	0
2022-07-07	13:53:17	1	3	1	6.5.1	26	3	TNT_NoThink_CSm	TNT_NoThink_CSm	0	5	0	0	0	0	3000	1	Cue25.jpg	0	0	0	0	0	0	0
2022-07-07	13:53:17	1	3	1	6.5.1	26	4	TNT_NoThink_CSm	Intrusion	0	500	3000	0	80	1	756	1	How <b>often</b> did you <b>think</b> about the <b>scene</b>?   <center><br><b>NEVER (1)    BRIEFLY (2)   OFTEN (3) </b>	0	0	0	0	0	0	0
2022-07-07	13:53:17	1	3	1	6.5.1	27	1	TNT_Object_CSm	fixation	0	5	1500	0	0	1	1495	1	+	8	0	0	0	0	0	0
2022-07-07	13:53:17	1	3	1	6.5.1	27	2	TNT_Object_CSm	Passive	0	5	0	0	0	0	1000	1	VIEW	8	0	0	0	0	0	0
2022-07-07	13:53:17	1	3	1	6.5.1	27	3	TNT_Object_CSm	TNT_Object_CSm	0	1000	0	0	0	0	3000	4	Object6.jpg	0	0	0	0	0	0	0
2022-07-07	13:53:17	1	3	1	6.5.1	28	1	TNT_Think_CSp	fixation	0	5	500	0	0	1	495	1	+	8	0	0	0	0	0	0
2022-07-07	13:53:17	1	3	1	6.5.1	28	2	TNT_Think_CSp	Think	0	5	0	0	0	0	1000	1	THINK	0	0	0	0	0	0	0
2022-07-07	13:53:17	1	3	1	6.5.1	28	3	TNT_Think_CSp	TNT_Think_CSp	0	5	0	0	0	0	6000	1	Cue28.jpg	0	0	0	0	0	0	0
2022-07-07	13:53:17	1	3	1	6.5.1	28	4	TNT_Think_CSp	Intrusion	0	1500	3000	0	0	0	1500	1	How <b>often</b> did you <b>think</b> about the <b>scene</b>?   <center><br><b>NEVER (1)    BRIEFLY (2)   OFTEN (3) </b>	0	0	0	0	0	0	0
2022-07-07	13:53:17	1	3	1	6.5.1	29	1	TNT_NoThink_CSm	fixation	0	5	1000	0	0	1	995	1	+	8	0	0	0	0	0	0
2022-07-07	13:53:17	1	3	1	6.5.1	29	2	TNT_NoThink_CSm	NoThink	0	5	0	0	0	0	1000	1	DON'T THINK	8	0	0	0	0	0	0
2022-07-07	13:53:17	1	3	1	6.5.1	29	3	TNT_NoThink_CSm	TNT_NoThink_CSm	0	5	0	0	0	0	3000	4	Cue21.jpg	0	0	0	0	0	0	0
2022-07-07	13:53:17	1	3	1	6.5.1	29	4	TNT_NoThink_CSm	Intrusion	0	1500	3000	0	79	1	438	1	How <b>often</b> did you <b>think</b> about the <b>scene</b>?   <center><br><b>NEVER (1)    BRIEFLY (2)   OFTEN (3) </b>	0	0	0	0	0	0	0
2022-07-07	13:53:17	1	3	1	6.5.1	30	1	TNT_NoThink_CSm	fixation	0	5	1500	0	0	1	1495	1	+	8	0	0	0	0	0	0
2022-07-07	13:53:17	1	3	1	6.5.1	30	2	TNT_NoThink_CSm	NoThink	0	5	0	0	0	0	1000	1	DON'T THINK	9	0	0	0	0	0	0
2022-07-07	13:53:17	1	3	1	6.5.1	30	3	TNT_NoThink_CSm	TNT_NoThink_CSm	0	5	0	0	0	0	3000	6	Cue33.jpg	0	0	0	0	0	0	0
2022-07-07	13:53:17	1	3	1	6.5.1	30	4	TNT_NoThink_CSm	Intrusion	0	1000	3000	0	0	0	2000	1	How <b>often</b> did you <b>think</b> about the <b>scene</b>?   <center><br><b>NEVER (1)    BRIEFLY (2)   OFTEN (3) </b>	0	0	0	0	0	0	0
2022-07-07	13:53:17	1	3	1	6.5.1	31	1	TNT_NoThink_CSp	fixation	0	5	500	0	0	1	495	1	+	8	0	0	0	0	0	0
2022-07-07	13:53:17	1	3	1	6.5.1	31	2	TNT_NoThink_CSp	NoThink	0	5	0	0	0	0	1000	1	DON'T THINK	9	0	0	0	0	0	0
2022-07-07	13:53:17	1	3	1	6.5.1	31	3	TNT_NoThink_CSp	TNT_NoThink_CSp	0	5	0	0	0	0	3000	2	Cue26.jpg	0	0	0	0	0	0	0
2022-07-07	13:53:17	1	3	1	6.5.1	31	4	TNT_NoThink_CSp	Intrusion	0	500	3000	0	79	1	1249	1	How <b>often</b> did you <b>think</b> about the <b>scene</b>?   <center><br><b>NEVER (1)    BRIEFLY (2)   OFTEN (3) </b>	0	0	0	0	0	0	0
2022-07-07	13:53:17	1	3	1	6.5.1	32	1	TNT_Object_CSm	fixation	0	5	1000	0	0	1	995	1	+	8	0	0	0	0	0	0
2022-07-07	13:53:17	1	3	1	6.5.1	32	2	TNT_Object_CSm	Passive	0	5	0	0	0	0	1000	1	VIEW	8	0	0	0	0	0	0
2022-07-07	13:53:17	1	3	1	6.5.1	32	3	TNT_Object_CSm	TNT_Object_CSm	0	500	0	0	0	0	3000	3	Object5.jpg	0	0	0	0	0	0	0
2022-07-07	13:53:17	1	3	1	6.5.1	33	1	TNT_Object_CSm	fixation	0	5	1500	0	0	1	1495	1	+	8	0	0	0	0	0	0
2022-07-07	13:53:17	1	3	1	6.5.1	33	2	TNT_Object_CSm	Passive	0	5	0	0	0	0	1000	1	VIEW	0	0	0	0	0	0	0
2022-07-07	13:53:17	1	3	1	6.5.1	33	3	TNT_Object_CSm	TNT_Object_CSm	0	1000	0	0	0	0	3000	1	Object7.jpg	0	0	0	0	0	0	0
2022-07-07	13:53:17	1	3	1	6.5.1	34	1	TNT_Think_CSp	fixation	0	5	1000	0	0	1	995	1	+	8	0	0	0	0	0	0
2022-07-07	13:53:17	1	3	1	6.5.1	34	2	TNT_Think_CSp	Think	0	5	0	0	0	0	1000	1	THINK	0	0	0	0	0	0	0
2022-07-07	13:53:17	1	3	1	6.5.1	34	3	TNT_Think_CSp	TNT_Think_CSp	0	5	0	0	0	0	6000	5	Cue17.jpg	0	0	0	0	0	0	0
2022-07-07	13:53:17	1	3	1	6.5.1	34	4	TNT_Think_CSp	Intrusion	0	1000	3000	0	81	1	1155	1	How <b>often</b> did you <b>think</b> about the <b>scene</b>?   <center><br><b>NEVER (1)    BRIEFLY (2)   OFTEN (3) </b>	0	0	0	0	0	0	0
2022-07-07	13:53:17	1	3	1	6.5.1	35	1	TNT_Object_CSp	fixation	0	5	1500	0	0	1	1495	1	+	8	0	0	0	0	0	0
2022-07-07	13:53:17	1	3	1	6.5.1	35	2	TNT_Object_CSp	Passive	0	5	0	0	0	0	1000	1	VIEW	8	0	0	0	0	0	0
2022-07-07	13:53:17	1	3	1	6.5.1	35	3	TNT_Object_CSp	TNT_Object_CSp	0	1500	0	0	0	0	3000	1	Object1.jpg	0	0	0	0	0	0	0
2022-07-07	13:53:17	1	3	1	6.5.1	36	1	TNT_Think_CSm	fixation	0	5	500	0	0	1	495	1	+	8	0	0	0	0	0	0
2022-07-07	13:53:17	1	3	1	6.5.1	36	2	TNT_Think_CSm	Think	0	5	0	0	0	0	1000	1	THINK	0	0	0	0	0	0	0
2022-07-07	13:53:17	1	3	1	6.5.1	36	3	TNT_Think_CSm	TNT_Think_CSm	0	5	0	0	0	0	6000	1	Cue14.jpg	0	0	0	0	0	0	0
2022-07-07	13:53:17	1	3	1	6.5.1	36	4	TNT_Think_CSm	Intrusion	0	500	3000	0	81	1	1138	1	How <b>often</b> did you <b>think</b> about the <b>scene</b>?   <center><br><b>NEVER (1)    BRIEFLY (2)   OFTEN (3) </b>	0	0	0	0	0	0	0
2022-07-07	13:53:17	1	3	1	6.5.1	37	1	TNT_NoThink_CSm	fixation	0	5	1000	0	0	1	995	1	+	8	0	0	0	0	0	0
2022-07-07	13:53:17	1	3	1	6.5.1	37	2	TNT_NoThink_CSm	NoThink	0	5	0	0	0	0	1000	1	DON'T THINK	8	0	0	0	0	0	0
2022-07-07	13:53:17	1	3	1	6.5.1	37	3	TNT_NoThink_CSm	TNT_NoThink_CSm	0	5	0	0	0	0	3000	1	Cue25.jpg	0	0	0	0	0	0	0
2022-07-07	13:53:17	1	3	1	6.5.1	37	4	TNT_NoThink_CSm	Intrusion	0	1500	3000	0	79	1	976	1	How <b>often</b> did you <b>think</b> about the <b>scene</b>?   <center><br><b>NEVER (1)    BRIEFLY (2)   OFTEN (3) </b>	0	0	0	0	0	0	0
2022-07-07	13:53:17	1	3	1	6.5.1	38	1	TNT_NoThink_CSm	fixation	0	5	1500	0	0	1	1495	1	+	8	0	0	0	0	0	0
2022-07-07	13:53:17	1	3	1	6.5.1	38	2	TNT_NoThink_CSm	NoThink	0	5	0	0	0	0	1000	1	DON'T THINK	8	0	0	0	0	0	0
2022-07-07	13:53:17	1	3	1	6.5.1	38	3	TNT_NoThink_CSm	TNT_NoThink_CSm	0	5	0	0	0	0	3000	4	Cue21.jpg	0	0	0	0	0	0	0
2022-07-07	13:53:17	1	3	1	6.5.1	38	4	TNT_NoThink_CSm	Intrusion	0	1500	3000	0	79	1	921	1	How <b>often</b> did you <b>think</b> about the <b>scene</b>?   <center><br><b>NEVER (1)    BRIEFLY (2)   OFTEN (3) </b>	0	0	0	0	0	0	0
2022-07-07	13:53:17	1	3	1	6.5.1	39	1	TNT_Object_CSp	fixation	0	5	500	0	0	1	495	1	+	8	0	0	0	0	0	0
2022-07-07	13:53:17	1	3	1	6.5.1	39	2	TNT_Object_CSp	Passive	0	5	0	0	0	0	1000	1	VIEW	8	0	0	0	0	0	0
2022-07-07	13:53:17	1	3	1	6.5.1	39	3	TNT_Object_CSp	TNT_Object_CSp	0	1000	0	0	0	0	3000	4	Object3.jpg	0	0	0	0	0	0	0
2022-07-07	13:53:17	1	3	1	6.5.1	40	1	TNT_NoThink_CSp	fixation	0	5	1500	0	0	1	1495	1	+	8	0	0	0	0	0	0
2022-07-07	13:53:17	1	3	1	6.5.1	40	2	TNT_NoThink_CSp	NoThink	0	5	0	0	0	0	1000	1	DON'T THINK	0	0	0	0	0	0	0
2022-07-07	13:53:17	1	3	1	6.5.1	40	3	TNT_NoThink_CSp	TNT_NoThink_CSp	0	5	0	0	0	0	3000	1	Cue22.jpg	0	0	0	0	0	0	0
2022-07-07	13:53:17	1	3	1	6.5.1	40	4	TNT_NoThink_CSp	Intrusion	0	1000	3000	0	79	1	933	1	How <b>often</b> did you <b>think</b> about the <b>scene</b>?   <center><br><b>NEVER (1)    BRIEFLY (2)   OFTEN (3) </b>	0	0	0	0	0	0	0
2022-07-07	13:53:17	1	3	1	6.5.1	41	1	TNT_NoThink_CSp	fixation	0	5	500	0	0	1	495	1	+	8	0	0	0	0	0	0
2022-07-07	13:53:17	1	3	1	6.5.1	41	2	TNT_NoThink_CSp	NoThink	0	5	0	0	0	0	1000	1	DON'T THINK	8	0	0	0	0	0	0
2022-07-07	13:53:17	1	3	1	6.5.1	41	3	TNT_NoThink_CSp	TNT_NoThink_CSp	0	5	0	0	0	0	3000	4	Cue4.jpg	0	0	0	0	0	0	0
2022-07-07	13:53:17	1	3	1	6.5.1	41	4	TNT_NoThink_CSp	Intrusion	0	500	3000	0	79	1	775	1	How <b>often</b> did you <b>think</b> about the <b>scene</b>?   <center><br><b>NEVER (1)    BRIEFLY (2)   OFTEN (3) </b>	0	0	0	0	0	0	0
2022-07-07	13:53:17	1	3	1	6.5.1	42	1	TNT_NoThink_CSm	fixation	0	5	1000	0	0	1	995	1	+	8	0	0	0	0	0	0
2022-07-07	13:53:17	1	3	1	6.5.1	42	2	TNT_NoThink_CSm	NoThink	0	5	0	0	0	0	1000	1	DON'T THINK	8	0	0	0	0	0	0
2022-07-07	13:53:17	1	3	1	6.5.1	42	3	TNT_NoThink_CSm	TNT_NoThink_CSm	0	5	0	0	0	0	3000	2	Cue2.jpg	0	0	0	0	0	0	0
2022-07-07	13:53:17	1	3	1	6.5.1	42	4	TNT_NoThink_CSm	Intrusion	0	1000	3000	0	79	1	660	1	How <b>often</b> did you <b>think</b> about the <b>scene</b>?   <center><br><b>NEVER (1)    BRIEFLY (2)   OFTEN (3) </b>	0	0	0	0	0	0	0
2022-07-07	13:53:17	1	3	1	6.5.1	43	1	TNT_NoThink_CSp	fixation	0	5	500	0	0	1	495	1	+	8	0	0	0	0	0	0
2022-07-07	13:53:17	1	3	1	6.5.1	43	2	TNT_NoThink_CSp	NoThink	0	5	0	0	0	0	1000	1	DON'T THINK	9	0	0	0	0	0	0
2022-07-07	13:53:17	1	3	1	6.5.1	43	3	TNT_NoThink_CSp	TNT_NoThink_CSp	0	5	0	0	0	0	3000	2	Cue26.jpg	0	0	0	0	0	0	0
2022-07-07	13:53:17	1	3	1	6.5.1	43	4	TNT_NoThink_CSp	Intrusion	0	1500	3000	0	79	1	694	1	How <b>often</b> did you <b>think</b> about the <b>scene</b>?   <center><br><b>NEVER (1)    BRIEFLY (2)   OFTEN (3) </b>	0	0	0	0	0	0	0
2022-07-07	13:53:17	1	3	1	6.5.1	44	1	TNT_Object_CSm	fixation	0	5	1000	0	0	1	995	1	+	8	0	0	0	0	0	0
2022-07-07	13:53:17	1	3	1	6.5.1	44	2	TNT_Object_CSm	Passive	0	5	0	0	0	0	1000	1	VIEW	8	0	0	0	0	0	0
2022-07-07	13:53:17	1	3	1	6.5.1	44	3	TNT_Object_CSm	TNT_Object_CSm	0	1500	0	0	0	0	3000	4	Object6.jpg	0	0	0	0	0	0	0
2022-07-07	13:53:17	1	3	1	6.5.1	45	1	TNT_NoThink_CSm	fixation	0	5	1500	0	0	1	1495	1	+	8	0	0	0	0	0	0
2022-07-07	13:53:17	1	3	1	6.5.1	45	2	TNT_NoThink_CSm	NoThink	0	5	0	0	0	0	1000	1	DON'T THINK	0	0	0	0	0	0	0
2022-07-07	13:53:17	1	3	1	6.5.1	45	3	TNT_NoThink_CSm	TNT_NoThink_CSm	0	5	0	0	0	0	3000	5	Cue30.jpg	0	0	0	0	0	0	0
2022-07-07	13:53:17	1	3	1	6.5.1	45	4	TNT_NoThink_CSm	Intrusion	0	500	3000	0	0	0	2500	1	How <b>often</b> did you <b>think</b> about the <b>scene</b>?   <center><br><b>NEVER (1)    BRIEFLY (2)   OFTEN (3) </b>	0	0	0	0	0	0	0
2022-07-07	13:53:17	1	3	1	6.5.1	46	1	TNT_NoThink_CSp	fixation	0	5	500	0	0	1	495	1	+	8	0	0	0	0	0	0
2022-07-07	13:53:17	1	3	1	6.5.1	46	2	TNT_NoThink_CSp	NoThink	0	5	0	0	0	0	1000	1	DON'T THINK	9	0	0	0	0	0	0
2022-07-07	13:53:17	1	3	1	6.5.1	46	3	TNT_NoThink_CSp	TNT_NoThink_CSp	0	5	0	0	0	0	3000	5	Cue35.jpg	0	0	0	0	0	0	0
2022-07-07	13:53:17	1	3	1	6.5.1	46	4	TNT_NoThink_CSp	Intrusion	0	1500	3000	0	79	1	651	1	How <b>often</b> did you <b>think</b> about the <b>scene</b>?   <center><br><b>NEVER (1)    BRIEFLY (2)   OFTEN (3) </b>	0	0	0	0	0	0	0
2022-07-07	13:53:17	1	3	1	6.5.1	47	1	TNT_Think_CSm	fixation	0	5	1000	0	0	1	995	1	+	8	0	0	0	0	0	0
2022-07-07	13:53:17	1	3	1	6.5.1	47	2	TNT_Think_CSm	Think	0	5	0	0	0	0	1000	1	THINK	8	0	0	0	0	0	0
2022-07-07	13:53:17	1	3	1	6.5.1	47	3	TNT_Think_CSm	TNT_Think_CSm	0	5	0	0	0	0	6000	6	Cue10.jpg	0	0	0	0	0	0	0
2022-07-07	13:53:17	1	3	1	6.5.1	47	4	TNT_Think_CSm	Intrusion	0	500	3000	0	81	1	1249	1	How <b>often</b> did you <b>think</b> about the <b>scene</b>?   <center><br><b>NEVER (1)    BRIEFLY (2)   OFTEN (3) </b>	0	0	0	0	0	0	0
2022-07-07	13:53:17	1	3	1	6.5.1	48	1	TNT_Think_CSm	fixation	0	5	1500	0	0	1	1495	1	+	8	0	0	0	0	0	0
2022-07-07	13:53:17	1	3	1	6.5.1	48	2	TNT_Think_CSm	Think	0	5	0	0	0	0	1000	1	THINK	8	0	0	0	0	0	0
2022-07-07	13:53:17	1	3	1	6.5.1	48	3	TNT_Think_CSm	TNT_Think_CSm	0	5	0	0	0	0	6000	4	Cue6.jpg	0	0	0	0	0	0	0
2022-07-07	13:53:17	1	3	1	6.5.1	48	4	TNT_Think_CSm	Intrusion	0	1000	3000	0	81	1	498	1	How <b>often</b> did you <b>think</b> about the <b>scene</b>?   <center><br><b>NEVER (1)    BRIEFLY (2)   OFTEN (3) </b>	0	0	0	0	0	0	0
2022-07-07	13:53:17	1	3	1	6.5.1	49	1	TNT_NoThink_CSp	fixation	0	5	500	0	0	1	495	1	+	8	0	0	0	0	0	0
2022-07-07	13:53:17	1	3	1	6.5.1	49	2	TNT_NoThink_CSp	NoThink	0	5	0	0	0	0	1000	1	DON'T THINK	9	0	0	0	0	0	0
2022-07-07	13:53:17	1	3	1	6.5.1	49	3	TNT_NoThink_CSp	TNT_NoThink_CSp	0	5	0	0	0	0	3000	6	Cue24.jpg	0	0	0	0	0	0	0
2022-07-07	13:53:17	1	3	1	6.5.1	49	4	TNT_NoThink_CSp	Intrusion	0	500	3000	0	79	1	899	1	How <b>often</b> did you <b>think</b> about the <b>scene</b>?   <center><br><b>NEVER (1)    BRIEFLY (2)   OFTEN (3) </b>	0	0	0	0	0	0	0
2022-07-07	13:53:17	1	3	1	6.5.1	50	1	TNT_NoThink_CSm	fixation	0	5	1000	0	0	1	995	1	+	8	0	0	0	0	0	0
2022-07-07	13:53:17	1	3	1	6.5.1	50	2	TNT_NoThink_CSm	NoThink	0	5	0	0	0	0	1000	1	DON'T THINK	8	0	0	0	0	0	0
2022-07-07	13:53:17	1	3	1	6.5.1	50	3	TNT_NoThink_CSm	TNT_NoThink_CSm	0	5	0	0	0	0	3000	6	Cue33.jpg	0	0	0	0	0	0	0
2022-07-07	13:53:17	1	3	1	6.5.1	50	4	TNT_NoThink_CSm	Intrusion	0	1500	3000	0	79	1	625	1	How <b>often</b> did you <b>think</b> about the <b>scene</b>?   <center><br><b>NEVER (1)    BRIEFLY (2)   OFTEN (3) </b>	0	0	0	0	0	0	0
2022-07-07	13:53:17	1	3	1	6.5.1	51	1	TNT_Think_CSp	fixation	0	5	1500	0	0	1	1495	1	+	8	0	0	0	0	0	0
2022-07-07	13:53:17	1	3	1	6.5.1	51	2	TNT_Think_CSp	Think	0	5	0	0	0	0	1000	1	THINK	8	0	0	0	0	0	0
2022-07-07	13:53:17	1	3	1	6.5.1	51	3	TNT_Think_CSp	TNT_Think_CSp	0	5	0	0	0	0	6000	1	Cue28.jpg	0	0	0	0	0	0	0
2022-07-07	13:53:17	1	3	1	6.5.1	51	4	TNT_Think_CSp	Intrusion	0	1000	3000	0	81	1	1890	1	How <b>often</b> did you <b>think</b> about the <b>scene</b>?   <center><br><b>NEVER (1)    BRIEFLY (2)   OFTEN (3) </b>	0	0	0	0	0	0	0
2022-07-07	13:53:17	1	3	1	6.5.1	52	1	TNT_Think_CSm	fixation	0	5	1500	0	0	1	1495	1	+	8	0	0	0	0	0	0
2022-07-07	13:53:17	1	3	1	6.5.1	52	2	TNT_Think_CSm	Think	0	5	0	0	0	0	1000	1	THINK	8	0	0	0	0	0	0
2022-07-07	13:53:17	1	3	1	6.5.1	52	3	TNT_Think_CSm	TNT_Think_CSm	0	5	0	0	0	0	6000	5	Cue36.jpg	0	0	0	0	0	0	0
2022-07-07	13:53:17	1	3	1	6.5.1	52	4	TNT_Think_CSm	Intrusion	0	1500	3000	0	0	0	1500	1	How <b>often</b> did you <b>think</b> about the <b>scene</b>?   <center><br><b>NEVER (1)    BRIEFLY (2)   OFTEN (3) </b>	0	0	0	0	0	0	0
2022-07-07	13:53:17	1	3	1	6.5.1	53	1	TNT_Think_CSp	fixation	0	5	500	0	0	1	495	1	+	8	0	0	0	0	0	0
2022-07-07	13:53:17	1	3	1	6.5.1	53	2	TNT_Think_CSp	Think	0	5	0	0	0	0	1000	1	THINK	0	0	0	0	0	0	0
2022-07-07	13:53:17	1	3	1	6.5.1	53	3	TNT_Think_CSp	TNT_Think_CSp	0	5	0	0	0	0	6000	2	Cue18.jpg	0	0	0	0	0	0	0
2022-07-07	13:53:17	1	3	1	6.5.1	53	4	TNT_Think_CSp	Intrusion	0	500	3000	0	81	1	1551	1	How <b>often</b> did you <b>think</b> about the <b>scene</b>?   <center><br><b>NEVER (1)    BRIEFLY (2)   OFTEN (3) </b>	0	0	0	0	0	0	0
2022-07-07	13:53:17	1	3	1	6.5.1	54	1	TNT_Object_CSp	fixation	0	5	1000	0	0	1	995	1	+	8	0	0	0	0	0	0
2022-07-07	13:53:17	1	3	1	6.5.1	54	2	TNT_Object_CSp	Passive	0	5	0	0	0	0	1000	1	VIEW	8	0	0	0	0	0	0
2022-07-07	13:53:17	1	3	1	6.5.1	54	3	TNT_Object_CSp	TNT_Object_CSp	0	500	0	0	0	0	3000	2	Object2.jpg	0	0	0	0	0	0	0
2022-07-07	13:53:17	1	3	1	6.5.1	55	1	TNT_Object_CSm	fixation	0	5	1000	0	0	1	995	1	+	8	0	0	0	0	0	0
2022-07-07	13:53:17	1	3	1	6.5.1	55	2	TNT_Object_CSm	Passive	0	5	0	0	0	0	1000	1	VIEW	0	0	0	0	0	0	0
2022-07-07	13:53:17	1	3	1	6.5.1	55	3	TNT_Object_CSm	TNT_Object_CSm	0	1500	0	0	0	0	3000	3	Object5.jpg	0	0	0	0	0	0	0
2022-07-07	13:53:17	1	3	1	6.5.1	56	1	TNT_Think_CSp	fixation	0	5	500	0	0	1	495	1	+	8	0	0	0	0	0	0
2022-07-07	13:53:17	1	3	1	6.5.1	56	2	TNT_Think_CSp	Think	0	5	0	0	0	0	1000	1	THINK	0	0	0	0	0	0	0
2022-07-07	13:53:17	1	3	1	6.5.1	56	3	TNT_Think_CSp	TNT_Think_CSp	0	5	0	0	0	0	6000	3	Cue27.jpg	0	0	0	0	0	0	0
2022-07-07	13:53:17	1	3	1	6.5.1	56	4	TNT_Think_CSp	Intrusion	0	1000	3000	0	81	1	1555	1	How <b>often</b> did you <b>think</b> about the <b>scene</b>?   <center><br><b>NEVER (1)    BRIEFLY (2)   OFTEN (3) </b>	0	0	0	0	0	0	0
2022-07-07	13:53:17	1	3	1	6.5.1	57	1	TNT_NoThink_CSm	fixation	0	5	1500	0	0	1	1495	1	+	8	0	0	0	0	0	0
2022-07-07	13:53:17	1	3	1	6.5.1	57	2	TNT_NoThink_CSm	NoThink	0	5	0	0	0	0	1000	1	DON'T THINK	9	0	0	0	0	0	0
2022-07-07	13:53:17	1	3	1	6.5.1	57	3	TNT_NoThink_CSm	TNT_NoThink_CSm	0	5	0	0	0	0	3000	3	Cue1.jpg	0	0	0	0	0	0	0
2022-07-07	13:53:17	1	3	1	6.5.1	57	4	TNT_NoThink_CSm	Intrusion	0	500	3000	0	79	1	1181	1	How <b>often</b> did you <b>think</b> about the <b>scene</b>?   <center><br><b>NEVER (1)    BRIEFLY (2)   OFTEN (3) </b>	0	0	0	0	0	0	0
2022-07-07	13:53:17	1	3	1	6.5.1	58	1	TNT_NoThink_CSp	fixation	0	5	1000	0	0	1	995	1	+	8	0	0	0	0	0	0
2022-07-07	13:53:17	1	3	1	6.5.1	58	2	TNT_NoThink_CSp	NoThink	0	5	0	0	0	0	1000	1	DON'T THINK	8	0	0	0	0	0	0
2022-07-07	13:53:17	1	3	1	6.5.1	58	3	TNT_NoThink_CSp	TNT_NoThink_CSp	0	5	0	0	0	0	3000	3	Cue5.jpg	0	0	0	0	0	0	0
2022-07-07	13:53:17	1	3	1	6.5.1	58	4	TNT_NoThink_CSp	Intrusion	0	1000	3000	0	79	1	476	1	How <b>often</b> did you <b>think</b> about the <b>scene</b>?   <center><br><b>NEVER (1)    BRIEFLY (2)   OFTEN (3) </b>	0	0	0	0	0	0	0
2022-07-07	13:53:17	1	3	1	6.5.1	59	1	TNT_Think_CSp	fixation	0	5	1500	0	0	1	1495	1	+	8	0	0	0	0	0	0
2022-07-07	13:53:17	1	3	1	6.5.1	59	2	TNT_Think_CSp	Think	0	5	0	0	0	0	1000	1	THINK	8	0	0	0	0	0	0
2022-07-07	13:53:17	1	3	1	6.5.1	59	3	TNT_Think_CSp	TNT_Think_CSp	0	5	0	0	0	0	6000	4	Cue34.jpg	0	0	0	0	0	0	0
2022-07-07	13:53:17	1	3	1	6.5.1	59	4	TNT_Think_CSp	Intrusion	0	1500	3000	0	81	1	1084	1	How <b>often</b> did you <b>think</b> about the <b>scene</b>?   <center><br><b>NEVER (1)    BRIEFLY (2)   OFTEN (3) </b>	0	0	0	0	0	0	0
2022-07-07	13:53:17	1	3	1	6.5.1	60	1	TNT_Object_CSp	fixation	0	5	500	0	0	1	495	1	+	8	0	0	0	0	0	0
2022-07-07	13:53:17	1	3	1	6.5.1	60	2	TNT_Object_CSp	Passive	0	5	0	0	0	0	1000	1	VIEW	0	0	0	0	0	0	0
2022-07-07	13:53:17	1	3	1	6.5.1	60	3	TNT_Object_CSp	TNT_Object_CSp	0	1000	0	0	0	0	3000	3	Object4.jpg	0	0	0	0	0	0	0
2022-07-07	13:53:17	1	3	1	6.5.1	61	1	TNT_Think_CSm	fixation	0	5	1000	0	0	1	995	1	+	8	0	0	0	0	0	0
2022-07-07	13:53:17	1	3	1	6.5.1	61	2	TNT_Think_CSm	Think	0	5	0	0	0	0	1000	1	THINK	0	0	0	0	0	0	0
2022-07-07	13:53:17	1	3	1	6.5.1	61	3	TNT_Think_CSm	TNT_Think_CSm	0	5	0	0	0	0	6000	2	Cue9.jpg	0	0	0	0	0	0	0
2022-07-07	13:53:17	1	3	1	6.5.1	61	4	TNT_Think_CSm	Intrusion	0	500	3000	0	81	1	1332	1	How <b>often</b> did you <b>think</b> about the <b>scene</b>?   <center><br><b>NEVER (1)    BRIEFLY (2)   OFTEN (3) </b>	0	0	0	0	0	0	0
2022-07-07	13:53:17	1	3	1	6.5.1	62	1	TNT_Object_CSm	fixation	0	5	500	0	0	1	495	1	+	8	0	0	0	0	0	0
2022-07-07	13:53:17	1	3	1	6.5.1	62	2	TNT_Object_CSm	Passive	0	5	0	0	0	0	1000	1	VIEW	8	0	0	0	0	0	0
2022-07-07	13:53:17	1	3	1	6.5.1	62	3	TNT_Object_CSm	TNT_Object_CSm	0	1000	0	0	0	0	3000	2	Object8.jpg	0	0	0	0	0	0	0
2022-07-07	13:53:17	1	3	1	6.5.1	63	1	TNT_Think_CSp	fixation	0	5	1500	0	0	1	1495	1	+	8	0	0	0	0	0	0
2022-07-07	13:53:17	1	3	1	6.5.1	63	2	TNT_Think_CSp	Think	0	5	0	0	0	0	1000	1	THINK	0	0	0	0	0	0	0
2022-07-07	13:53:17	1	3	1	6.5.1	63	3	TNT_Think_CSp	TNT_Think_CSp	0	5	0	0	0	0	6000	6	Cue19.jpg	0	0	0	0	0	0	0
2022-07-07	13:53:17	1	3	1	6.5.1	63	4	TNT_Think_CSp	Intrusion	0	1000	3000	0	81	1	1305	1	How <b>often</b> did you <b>think</b> about the <b>scene</b>?   <center><br><b>NEVER (1)    BRIEFLY (2)   OFTEN (3) </b>	0	0	0	0	0	0	0
2022-07-07	13:53:17	1	3	1	6.5.1	64	1	TNT_Think_CSm	fixation	0	5	500	0	0	1	495	1	+	8	0	0	0	0	0	0
2022-07-07	13:53:17	1	3	1	6.5.1	64	2	TNT_Think_CSm	Think	0	5	0	0	0	0	1000	1	THINK	8	0	0	0	0	0	0
2022-07-07	13:53:17	1	3	1	6.5.1	64	3	TNT_Think_CSm	TNT_Think_CSm	0	5	0	0	0	0	6000	3	Cue20.jpg	0	0	0	0	0	0	0
2022-07-07	13:53:17	1	3	1	6.5.1	64	4	TNT_Think_CSm	Intrusion	0	1500	3000	0	0	0	1500	1	How <b>often</b> did you <b>think</b> about the <b>scene</b>?   <center><br><b>NEVER (1)    BRIEFLY (2)   OFTEN (3) </b>	0	0	0	0	0	0	0
2022-07-07	13:53:17	1	3	1	6.5.1	65	1	between_TNT	between_TNT	0	5	0	0	0	0	15000	1	<center> <br><br><br>This is the end of the block. <br><br> You have a 15 second break.	8	0	0	0	0	0	0
2022-07-07	13:53:17	1	3	1	6.5.1	66	1	TNT_NoThink_CSp	fixation	0	5	1500	0	0	1	1495	1	+	17	0	0	0	0	0	0
2022-07-07	13:53:17	1	3	1	6.5.1	66	2	TNT_NoThink_CSp	NoThink	0	5	0	0	0	0	1000	1	DON'T THINK	0	0	0	0	0	0	0
2022-07-07	13:53:17	1	3	1	6.5.1	66	3	TNT_NoThink_CSp	TNT_NoThink_CSp	0	5	0	0	0	0	3000	1	Cue22.jpg	0	0	0	0	0	0	0
2022-07-07	13:53:17	1	3	1	6.5.1	66	4	TNT_NoThink_CSp	Intrusion	0	1500	3000	0	79	1	706	1	How <b>often</b> did you <b>think</b> about the <b>scene</b>?   <center><br><b>NEVER (1)    BRIEFLY (2)   OFTEN (3) </b>	0	0	0	0	0	0	0
2022-07-07	13:53:17	1	3	1	6.5.1	67	1	TNT_NoThink_CSm	fixation	0	5	1000	0	0	1	995	1	+	8	0	0	0	0	0	0
2022-07-07	13:53:17	1	3	1	6.5.1	67	2	TNT_NoThink_CSm	NoThink	0	5	0	0	0	0	1000	1	DON'T THINK	8	0	0	0	0	0	0
2022-07-07	13:53:17	1	3	1	6.5.1	67	3	TNT_NoThink_CSm	TNT_NoThink_CSm	0	5	0	0	0	0	3000	2	Cue2.jpg	0	0	0	0	0	0	0
2022-07-07	13:53:17	1	3	1	6.5.1	67	4	TNT_NoThink_CSm	Intrusion	0	1000	3000	0	79	1	880	1	How <b>often</b> did you <b>think</b> about the <b>scene</b>?   <center><br><b>NEVER (1)    BRIEFLY (2)   OFTEN (3) </b>	0	0	0	0	0	0	0
2022-07-07	13:53:17	1	3	1	6.5.1	68	1	TNT_NoThink_CSm	fixation	0	5	500	0	0	1	495	1	+	8	0	0	0	0	0	0
2022-07-07	13:53:17	1	3	1	6.5.1	68	2	TNT_NoThink_CSm	NoThink	0	5	0	0	0	0	1000	1	DON'T THINK	9	0	0	0	0	0	0
2022-07-07	13:53:17	1	3	1	6.5.1	68	3	TNT_NoThink_CSm	TNT_NoThink_CSm	0	5	0	0	0	0	3000	3	Cue1.jpg	0	0	0	0	0	0	0
2022-07-07	13:53:17	1	3	1	6.5.1	68	4	TNT_NoThink_CSm	Intrusion	0	500	3000	0	79	1	497	1	How <b>often</b> did you <b>think</b> about the <b>scene</b>?   <center><br><b>NEVER (1)    BRIEFLY (2)   OFTEN (3) </b>	0	0	0	0	0	0	0
2022-07-07	13:53:17	1	3	1	6.5.1	69	1	TNT_NoThink_CSp	fixation	0	5	1500	0	0	1	1495	1	+	8	0	0	0	0	0	0
2022-07-07	13:53:17	1	3	1	6.5.1	69	2	TNT_NoThink_CSp	NoThink	0	5	0	0	0	0	1000	1	DON'T THINK	8	0	0	0	0	0	0
2022-07-07	13:53:17	1	3	1	6.5.1	69	3	TNT_NoThink_CSp	TNT_NoThink_CSp	0	5	0	0	0	0	3000	2	Cue26.jpg	0	0	0	0	0	0	0
2022-07-07	13:53:17	1	3	1	6.5.1	69	4	TNT_NoThink_CSp	Intrusion	0	1000	3000	0	79	1	507	1	How <b>often</b> did you <b>think</b> about the <b>scene</b>?   <center><br><b>NEVER (1)    BRIEFLY (2)   OFTEN (3) </b>	0	0	0	0	0	0	0
2022-07-07	13:53:17	1	3	1	6.5.1	70	1	TNT_Think_CSp	fixation	0	5	1000	0	0	1	995	1	+	8	0	0	0	0	0	0
2022-07-07	13:53:17	1	3	1	6.5.1	70	2	TNT_Think_CSp	Think	0	5	0	0	0	0	1000	1	THINK	8	0	0	0	0	0	0
2022-07-07	13:53:17	1	3	1	6.5.1	70	3	TNT_Think_CSp	TNT_Think_CSp	0	5	0	0	0	0	6000	4	Cue34.jpg	0	0	0	0	0	0	0
2022-07-07	13:53:17	1	3	1	6.5.1	70	4	TNT_Think_CSp	Intrusion	0	500	3000	0	81	1	608	1	How <b>often</b> did you <b>think</b> about the <b>scene</b>?   <center><br><b>NEVER (1)    BRIEFLY (2)   OFTEN (3) </b>	0	0	0	0	0	0	0
2022-07-07	13:53:17	1	3	1	6.5.1	71	1	TNT_NoThink_CSm	fixation	0	5	1500	0	0	1	1495	1	+	8	0	0	0	0	0	0
2022-07-07	13:53:17	1	3	1	6.5.1	71	2	TNT_NoThink_CSm	NoThink	0	5	0	0	0	0	1000	1	DON'T THINK	8	0	0	0	0	0	0
2022-07-07	13:53:17	1	3	1	6.5.1	71	3	TNT_NoThink_CSm	TNT_NoThink_CSm	0	5	0	0	0	0	3000	5	Cue30.jpg	0	0	0	0	0	0	0
2022-07-07	13:53:17	1	3	1	6.5.1	71	4	TNT_NoThink_CSm	Intrusion	0	1500	3000	0	79	1	762	1	How <b>often</b> did you <b>think</b> about the <b>scene</b>?   <center><br><b>NEVER (1)    BRIEFLY (2)   OFTEN (3) </b>	0	0	0	0	0	0	0
2022-07-07	13:53:17	1	3	1	6.5.1	72	1	TNT_NoThink_CSm	fixation	0	5	500	0	0	1	495	1	+	9	0	0	0	0	0	0
2022-07-07	13:53:17	1	3	1	6.5.1	72	2	TNT_NoThink_CSm	NoThink	0	5	0	0	0	0	1000	1	DON'T THINK	8	0	0	0	0	0	0
2022-07-07	13:53:17	1	3	1	6.5.1	72	3	TNT_NoThink_CSm	TNT_NoThink_CSm	0	5	0	0	0	0	3000	1	Cue25.jpg	0	0	0	0	0	0	0
2022-07-07	13:53:17	1	3	1	6.5.1	72	4	TNT_NoThink_CSm	Intrusion	0	1500	3000	0	79	1	635	1	How <b>often</b> did you <b>think</b> about the <b>scene</b>?   <center><br><b>NEVER (1)    BRIEFLY (2)   OFTEN (3) </b>	0	0	0	0	0	0	0
2022-07-07	13:53:17	1	3	1	6.5.1	73	1	TNT_Think_CSp	fixation	0	5	1000	0	0	1	995	1	+	8	0	0	0	0	0	0
2022-07-07	13:53:17	1	3	1	6.5.1	73	2	TNT_Think_CSp	Think	0	5	0	0	0	0	1000	1	THINK	8	0	0	0	0	0	0
2022-07-07	13:53:17	1	3	1	6.5.1	73	3	TNT_Think_CSp	TNT_Think_CSp	0	5	0	0	0	0	6000	2	Cue18.jpg	0	0	0	0	0	0	0
2022-07-07	13:53:17	1	3	1	6.5.1	73	4	TNT_Think_CSp	Intrusion	0	1000	3000	0	81	1	1409	1	How <b>often</b> did you <b>think</b> about the <b>scene</b>?   <center><br><b>NEVER (1)    BRIEFLY (2)   OFTEN (3) </b>	0	0	0	0	0	0	0
2022-07-07	13:53:17	1	3	1	6.5.1	74	1	TNT_Think_CSp	fixation	0	5	1500	0	0	1	1495	1	+	8	0	0	0	0	0	0
2022-07-07	13:53:17	1	3	1	6.5.1	74	2	TNT_Think_CSp	Think	0	5	0	0	0	0	1000	1	THINK	8	0	0	0	0	0	0
2022-07-07	13:53:17	1	3	1	6.5.1	74	3	TNT_Think_CSp	TNT_Think_CSp	0	5	0	0	0	0	6000	3	Cue27.jpg	0	0	0	0	0	0	0
2022-07-07	13:53:17	1	3	1	6.5.1	74	4	TNT_Think_CSp	Intrusion	0	500	3000	0	81	1	690	1	How <b>often</b> did you <b>think</b> about the <b>scene</b>?   <center><br><b>NEVER (1)    BRIEFLY (2)   OFTEN (3) </b>	0	0	0	0	0	0	0
2022-07-07	13:53:17	1	3	1	6.5.1	75	1	TNT_NoThink_CSp	fixation	0	5	500	0	0	1	495	1	+	8	0	0	0	0	0	0
2022-07-07	13:53:17	1	3	1	6.5.1	75	2	TNT_NoThink_CSp	NoThink	0	5	0	0	0	0	1000	1	DON'T THINK	8	0	0	0	0	0	0
2022-07-07	13:53:17	1	3	1	6.5.1	75	3	TNT_NoThink_CSp	TNT_NoThink_CSp	0	5	0	0	0	0	3000	5	Cue35.jpg	0	0	0	0	0	0	0
2022-07-07	13:53:17	1	3	1	6.5.1	75	4	TNT_NoThink_CSp	Intrusion	0	1500	3000	0	80	1	771	1	How <b>often</b> did you <b>think</b> about the <b>scene</b>?   <center><br><b>NEVER (1)    BRIEFLY (2)   OFTEN (3) </b>	0	0	0	0	0	0	0
2022-07-07	13:53:17	1	3	1	6.5.1	76	1	TNT_Object_CSp	fixation	0	5	1000	0	0	1	995	1	+	8	0	0	0	0	0	0
2022-07-07	13:53:17	1	3	1	6.5.1	76	2	TNT_Object_CSp	Passive	0	5	0	0	0	0	1000	1	VIEW	8	0	0	0	0	0	0
2022-07-07	13:53:17	1	3	1	6.5.1	76	3	TNT_Object_CSp	TNT_Object_CSp	0	1500	0	0	0	0	3000	1	Object1.jpg	0	0	0	0	0	0	0
2022-07-07	13:53:17	1	3	1	6.5.1	77	1	TNT_Think_CSm	fixation	0	5	500	0	0	1	495	1	+	8	0	0	0	0	0	0
2022-07-07	13:53:17	1	3	1	6.5.1	77	2	TNT_Think_CSm	Think	0	5	0	0	0	0	1000	1	THINK	0	0	0	0	0	0	0
2022-07-07	13:53:17	1	3	1	6.5.1	77	3	TNT_Think_CSm	TNT_Think_CSm	0	5	0	0	0	0	6000	5	Cue36.jpg	0	0	0	0	0	0	0
2022-07-07	13:53:17	1	3	1	6.5.1	77	4	TNT_Think_CSm	Intrusion	0	1000	3000	0	0	0	2000	1	How <b>often</b> did you <b>think</b> about the <b>scene</b>?   <center><br><b>NEVER (1)    BRIEFLY (2)   OFTEN (3) </b>	0	0	0	0	0	0	0
2022-07-07	13:53:17	1	3	1	6.5.1	78	1	TNT_Object_CSm	fixation	0	5	1500	0	0	1	1495	1	+	8	0	0	0	0	0	0
2022-07-07	13:53:17	1	3	1	6.5.1	78	2	TNT_Object_CSm	Passive	0	5	0	0	0	0	1000	1	VIEW	8	0	0	0	0	0	0
2022-07-07	13:53:17	1	3	1	6.5.1	78	3	TNT_Object_CSm	TNT_Object_CSm	0	500	0	0	0	0	3000	1	Object7.jpg	0	0	0	0	0	0	0
2022-07-07	13:53:17	1	3	1	6.5.1	79	1	TNT_Think_CSm	fixation	0	5	1000	0	0	1	995	1	+	8	0	0	0	0	0	0
2022-07-07	13:53:17	1	3	1	6.5.1	79	2	TNT_Think_CSm	Think	0	5	0	0	0	0	1000	1	THINK	0	0	0	0	0	0	0
2022-07-07	13:53:17	1	3	1	6.5.1	79	3	TNT_Think_CSm	TNT_Think_CSm	0	5	0	0	0	0	6000	6	Cue10.jpg	0	0	0	0	0	0	0
2022-07-07	13:53:17	1	3	1	6.5.1	79	4	TNT_Think_CSm	Intrusion	0	500	3000	0	81	1	539	1	How <b>often</b> did you <b>think</b> about the <b>scene</b>?   <center><br><b>NEVER (1)    BRIEFLY (2)   OFTEN (3) </b>	0	0	0	0	0	0	0
2022-07-07	13:53:17	1	3	1	6.5.1	80	1	TNT_Think_CSp	fixation	0	5	1500	0	0	1	1495	1	+	8	0	0	0	0	0	0
2022-07-07	13:53:17	1	3	1	6.5.1	80	2	TNT_Think_CSp	Think	0	5	0	0	0	0	1000	1	THINK	9	0	0	0	0	0	0
2022-07-07	13:53:17	1	3	1	6.5.1	80	3	TNT_Think_CSp	TNT_Think_CSp	0	5	0	0	0	0	6000	1	Cue28.jpg	0	0	0	0	0	0	0
2022-07-07	13:53:17	1	3	1	6.5.1	80	4	TNT_Think_CSp	Intrusion	0	500	3000	0	81	1	1100	1	How <b>often</b> did you <b>think</b> about the <b>scene</b>?   <center><br><b>NEVER (1)    BRIEFLY (2)   OFTEN (3) </b>	0	0	0	0	0	0	0
2022-07-07	13:53:17	1	3	1	6.5.1	81	1	TNT_Object_CSp	fixation	0	5	500	0	0	1	495	1	+	8	0	0	0	0	0	0
2022-07-07	13:53:17	1	3	1	6.5.1	81	2	TNT_Object_CSp	Passive	0	5	0	0	0	0	1000	1	VIEW	9	0	0	0	0	0	0
2022-07-07	13:53:17	1	3	1	6.5.1	81	3	TNT_Object_CSp	TNT_Object_CSp	0	500	0	0	0	0	3000	3	Object4.jpg	0	0	0	0	0	0	0
2022-07-07	13:53:17	1	3	1	6.5.1	82	1	TNT_Think_CSm	fixation	0	5	1000	0	0	1	995	1	+	8	0	0	0	0	0	0
2022-07-07	13:53:17	1	3	1	6.5.1	82	2	TNT_Think_CSm	Think	0	5	0	0	0	0	1000	1	THINK	0	0	0	0	0	0	0
2022-07-07	13:53:17	1	3	1	6.5.1	82	3	TNT_Think_CSm	TNT_Think_CSm	0	5	0	0	0	0	6000	1	Cue14.jpg	0	0	0	0	0	0	0
2022-07-07	13:53:17	1	3	1	6.5.1	82	4	TNT_Think_CSm	Intrusion	0	1500	3000	0	81	1	648	1	How <b>often</b> did you <b>think</b> about the <b>scene</b>?   <center><br><b>NEVER (1)    BRIEFLY (2)   OFTEN (3) </b>	0	0	0	0	0	0	0
2022-07-07	13:53:17	1	3	1	6.5.1	83	1	TNT_Think_CSp	fixation	0	5	500	0	0	1	495	1	+	8	0	0	0	0	0	0
2022-07-07	13:53:17	1	3	1	6.5.1	83	2	TNT_Think_CSp	Think	0	5	0	0	0	0	1000	1	THINK	8	0	0	0	0	0	0
2022-07-07	13:53:17	1	3	1	6.5.1	83	3	TNT_Think_CSp	TNT_Think_CSp	0	5	0	0	0	0	6000	6	Cue19.jpg	0	0	0	0	0	0	0
2022-07-07	13:53:17	1	3	1	6.5.1	83	4	TNT_Think_CSp	Intrusion	0	1000	3000	0	81	1	673	1	How <b>often</b> did you <b>think</b> about the <b>scene</b>?   <center><br><b>NEVER (1)    BRIEFLY (2)   OFTEN (3) </b>	0	0	0	0	0	0	0
2022-07-07	13:53:17	1	3	1	6.5.1	84	1	TNT_Object_CSp	fixation	0	5	1000	0	0	1	995	1	+	8	0	0	0	0	0	0
2022-07-07	13:53:17	1	3	1	6.5.1	84	2	TNT_Object_CSp	Passive	0	5	0	0	0	0	1000	1	VIEW	8	0	0	0	0	0	0
2022-07-07	13:53:17	1	3	1	6.5.1	84	3	TNT_Object_CSp	TNT_Object_CSp	0	1500	0	0	0	0	3000	4	Object3.jpg	0	0	0	0	0	0	0
2022-07-07	13:53:17	1	3	1	6.5.1	85	1	TNT_Object_CSm	fixation	0	5	1500	0	0	1	1495	1	+	8	0	0	0	0	0	0
2022-07-07	13:53:17	1	3	1	6.5.1	85	2	TNT_Object_CSm	Passive	0	5	0	0	0	0	1000	1	VIEW	0	0	0	0	0	0	0
2022-07-07	13:53:17	1	3	1	6.5.1	85	3	TNT_Object_CSm	TNT_Object_CSm	0	500	0	0	0	0	3000	2	Object8.jpg	0	0	0	0	0	0	0
2022-07-07	13:53:17	1	3	1	6.5.1	86	1	TNT_NoThink_CSm	fixation	0	5	1500	0	0	1	1495	1	+	8	0	0	0	0	0	0
2022-07-07	13:53:17	1	3	1	6.5.1	86	2	TNT_NoThink_CSm	NoThink	0	5	0	0	0	0	1000	1	DON'T THINK	0	0	0	0	0	0	0
2022-07-07	13:53:17	1	3	1	6.5.1	86	3	TNT_NoThink_CSm	TNT_NoThink_CSm	0	5	0	0	0	0	3000	4	Cue21.jpg	0	0	0	0	0	0	0
2022-07-07	13:53:17	1	3	1	6.5.1	86	4	TNT_NoThink_CSm	Intrusion	0	500	3000	0	79	1	1347	1	How <b>often</b> did you <b>think</b> about the <b>scene</b>?   <center><br><b>NEVER (1)    BRIEFLY (2)   OFTEN (3) </b>	0	0	0	0	0	0	0
2022-07-07	13:53:17	1	3	1	6.5.1	87	1	TNT_Think_CSm	fixation	0	5	1000	0	0	1	995	1	+	8	0	0	0	0	0	0
2022-07-07	13:53:17	1	3	1	6.5.1	87	2	TNT_Think_CSm	Think	0	5	0	0	0	0	1000	1	THINK	8	0	0	0	0	0	0
2022-07-07	13:53:17	1	3	1	6.5.1	87	3	TNT_Think_CSm	TNT_Think_CSm	0	5	0	0	0	0	6000	2	Cue9.jpg	0	0	0	0	0	0	0
2022-07-07	13:53:17	1	3	1	6.5.1	87	4	TNT_Think_CSm	Intrusion	0	1500	3000	0	81	1	601	1	How <b>often</b> did you <b>think</b> about the <b>scene</b>?   <center><br><b>NEVER (1)    BRIEFLY (2)   OFTEN (3) </b>	0	0	0	0	0	0	0
2022-07-07	13:53:17	1	3	1	6.5.1	88	1	TNT_Object_CSm	fixation	0	5	500	0	0	1	495	1	+	8	0	0	0	0	0	0
2022-07-07	13:53:17	1	3	1	6.5.1	88	2	TNT_Object_CSm	Passive	0	5	0	0	0	0	1000	1	VIEW	8	0	0	0	0	0	0
2022-07-07	13:53:17	1	3	1	6.5.1	88	3	TNT_Object_CSm	TNT_Object_CSm	0	1500	0	0	0	0	3000	4	Object6.jpg	0	0	0	0	0	0	0
2022-07-07	13:53:17	1	3	1	6.5.1	89	1	TNT_Think_CSm	fixation	0	5	1000	0	0	1	995	1	+	8	0	0	0	0	0	0
2022-07-07	13:53:17	1	3	1	6.5.1	89	2	TNT_Think_CSm	Think	0	5	0	0	0	0	1000	1	THINK	0	0	0	0	0	0	0
2022-07-07	13:53:17	1	3	1	6.5.1	89	3	TNT_Think_CSm	TNT_Think_CSm	0	5	0	0	0	0	6000	4	Cue6.jpg	0	0	0	0	0	0	0
2022-07-07	13:53:17	1	3	1	6.5.1	89	4	TNT_Think_CSm	Intrusion	0	1000	3000	0	81	1	796	1	How <b>often</b> did you <b>think</b> about the <b>scene</b>?   <center><br><b>NEVER (1)    BRIEFLY (2)   OFTEN (3) </b>	0	0	0	0	0	0	0
2022-07-07	13:53:17	1	3	1	6.5.1	90	1	TNT_NoThink_CSp	fixation	0	5	1500	0	0	1	1495	1	+	8	0	0	0	0	0	0
2022-07-07	13:53:17	1	3	1	6.5.1	90	2	TNT_NoThink_CSp	NoThink	0	5	0	0	0	0	1000	1	DON'T THINK	8	0	0	0	0	0	0
2022-07-07	13:53:17	1	3	1	6.5.1	90	3	TNT_NoThink_CSp	TNT_NoThink_CSp	0	5	0	0	0	0	3000	6	Cue24.jpg	0	0	0	0	0	0	0
2022-07-07	13:53:17	1	3	1	6.5.1	90	4	TNT_NoThink_CSp	Intrusion	0	1500	3000	0	79	1	806	1	How <b>often</b> did you <b>think</b> about the <b>scene</b>?   <center><br><b>NEVER (1)    BRIEFLY (2)   OFTEN (3) </b>	0	0	0	0	0	0	0
2022-07-07	13:53:17	1	3	1	6.5.1	91	1	TNT_Object_CSp	fixation	0	5	500	0	0	1	495	1	+	8	0	0	0	0	0	0
2022-07-07	13:53:17	1	3	1	6.5.1	91	2	TNT_Object_CSp	Passive	0	5	0	0	0	0	1000	1	VIEW	8	0	0	0	0	0	0
2022-07-07	13:53:17	1	3	1	6.5.1	91	3	TNT_Object_CSp	TNT_Object_CSp	0	1000	0	0	0	0	3000	2	Object2.jpg	0	0	0	0	0	0	0
2022-07-07	13:53:17	1	3	1	6.5.1	92	1	TNT_Think_CSm	fixation	0	5	1500	0	0	1	1495	1	+	8	0	0	0	0	0	0
2022-07-07	13:53:17	1	3	1	6.5.1	92	2	TNT_Think_CSm	Think	0	5	0	0	0	0	1000	1	THINK	0	0	0	0	0	0	0
2022-07-07	13:53:17	1	3	1	6.5.1	92	3	TNT_Think_CSm	TNT_Think_CSm	0	5	0	0	0	0	6000	3	Cue20.jpg	0	0	0	0	0	0	0
2022-07-07	13:53:17	1	3	1	6.5.1	92	4	TNT_Think_CSm	Intrusion	0	1000	3000	0	81	1	1273	1	How <b>often</b> did you <b>think</b> about the <b>scene</b>?   <center><br><b>NEVER (1)    BRIEFLY (2)   OFTEN (3) </b>	0	0	0	0	0	0	0
2022-07-07	13:53:17	1	3	1	6.5.1	93	1	TNT_NoThink_CSm	fixation	0	5	500	0	0	1	495	1	+	8	0	0	0	0	0	0
2022-07-07	13:53:17	1	3	1	6.5.1	93	2	TNT_NoThink_CSm	NoThink	0	5	0	0	0	0	1000	1	DON'T THINK	8	0	0	0	0	0	0
2022-07-07	13:53:17	1	3	1	6.5.1	93	3	TNT_NoThink_CSm	TNT_NoThink_CSm	0	5	0	0	0	0	3000	6	Cue33.jpg	0	0	0	0	0	0	0
2022-07-07	13:53:17	1	3	1	6.5.1	93	4	TNT_NoThink_CSm	Intrusion	0	500	3000	0	79	1	2107	1	How <b>often</b> did you <b>think</b> about the <b>scene</b>?   <center><br><b>NEVER (1)    BRIEFLY (2)   OFTEN (3) </b>	0	0	0	0	0	0	0
2022-07-07	13:53:17	1	3	1	6.5.1	94	1	TNT_Object_CSm	fixation	0	5	1000	0	0	1	995	1	+	8	0	0	0	0	0	0
2022-07-07	13:53:17	1	3	1	6.5.1	94	2	TNT_Object_CSm	Passive	0	5	0	0	0	0	1000	1	VIEW	8	0	0	0	0	0	0
2022-07-07	13:53:17	1	3	1	6.5.1	94	3	TNT_Object_CSm	TNT_Object_CSm	0	1000	0	0	0	0	3000	3	Object5.jpg	0	0	0	0	0	0	0
2022-07-07	13:53:17	1	3	1	6.5.1	95	1	TNT_NoThink_CSp	fixation	0	5	500	0	0	1	495	1	+	8	0	0	0	0	0	0
2022-07-07	13:53:17	1	3	1	6.5.1	95	2	TNT_NoThink_CSp	NoThink	0	5	0	0	0	0	1000	1	DON'T THINK	0	0	0	0	0	0	0
2022-07-07	13:53:17	1	3	1	6.5.1	95	3	TNT_NoThink_CSp	TNT_NoThink_CSp	0	5	0	0	0	0	3000	4	Cue4.jpg	0	0	0	0	0	0	0
2022-07-07	13:53:17	1	3	1	6.5.1	95	4	TNT_NoThink_CSp	Intrusion	0	1500	3000	0	79	1	715	1	How <b>often</b> did you <b>think</b> about the <b>scene</b>?   <center><br><b>NEVER (1)    BRIEFLY (2)   OFTEN (3) </b>	0	0	0	0	0	0	0
2022-07-07	13:53:17	1	3	1	6.5.1	96	1	TNT_Think_CSp	fixation	0	5	1000	0	0	1	995	1	+	8	0	0	0	0	0	0
2022-07-07	13:53:17	1	3	1	6.5.1	96	2	TNT_Think_CSp	Think	0	5	0	0	0	0	1000	1	THINK	8	0	0	0	0	0	0
2022-07-07	13:53:17	1	3	1	6.5.1	96	3	TNT_Think_CSp	TNT_Think_CSp	0	5	0	0	0	0	6000	5	Cue17.jpg	0	0	0	0	0	0	0
2022-07-07	13:53:17	1	3	1	6.5.1	96	4	TNT_Think_CSp	Intrusion	0	1000	3000	0	81	1	1712	1	How <b>often</b> did you <b>think</b> about the <b>scene</b>?   <center><br><b>NEVER (1)    BRIEFLY (2)   OFTEN (3) </b>	0	0	0	0	0	0	0
2022-07-07	13:53:17	1	3	1	6.5.1	97	1	TNT_NoThink_CSp	fixation	0	5	1500	0	0	1	1495	1	+	8	0	0	0	0	0	0
2022-07-07	13:53:17	1	3	1	6.5.1	97	2	TNT_NoThink_CSp	NoThink	0	5	0	0	0	0	1000	1	DON'T THINK	8	0	0	0	0	0	0
2022-07-07	13:53:17	1	3	1	6.5.1	97	3	TNT_NoThink_CSp	TNT_NoThink_CSp	0	5	0	0	0	0	3000	3	Cue5.jpg	0	0	0	0	0	0	0
2022-07-07	13:53:17	1	3	1	6.5.1	97	4	TNT_NoThink_CSp	Intrusion	0	500	3000	0	79	1	1273	1	How <b>often</b> did you <b>think</b> about the <b>scene</b>?   <center><br><b>NEVER (1)    BRIEFLY (2)   OFTEN (3) </b>	0	0	0	0	0	0	0
2022-07-07	13:53:17	1	3	1	6.5.1	98	1	TNT_NoThink_CSp	fixation	0	5	500	0	0	1	495	1	+	8	0	0	0	0	0	0
2022-07-07	13:53:17	1	3	1	6.5.1	98	2	TNT_NoThink_CSp	NoThink	0	5	0	0	0	0	1000	1	DON'T THINK	8	0	0	0	0	0	0
2022-07-07	13:53:17	1	3	1	6.5.1	98	3	TNT_NoThink_CSp	TNT_NoThink_CSp	0	5	0	0	0	0	3000	6	Cue24.jpg	0	0	0	0	0	0	0
2022-07-07	13:53:17	1	3	1	6.5.1	98	4	TNT_NoThink_CSp	Intrusion	0	1000	3000	0	79	1	1355	1	How <b>often</b> did you <b>think</b> about the <b>scene</b>?   <center><br><b>NEVER (1)    BRIEFLY (2)   OFTEN (3) </b>	0	0	0	0	0	0	0
2022-07-07	13:53:17	1	3	1	6.5.1	99	1	TNT_Think_CSp	fixation	0	5	1000	0	0	1	995	1	+	8	0	0	0	0	0	0
2022-07-07	13:53:17	1	3	1	6.5.1	99	2	TNT_Think_CSp	Think	0	5	0	0	0	0	1000	1	THINK	8	0	0	0	0	0	0
2022-07-07	13:53:17	1	3	1	6.5.1	99	3	TNT_Think_CSp	TNT_Think_CSp	0	5	0	0	0	0	6000	6	Cue19.jpg	0	0	0	0	0	0	0
2022-07-07	13:53:17	1	3	1	6.5.1	99	4	TNT_Think_CSp	Intrusion	0	1500	3000	0	81	1	560	1	How <b>often</b> did you <b>think</b> about the <b>scene</b>?   <center><br><b>NEVER (1)    BRIEFLY (2)   OFTEN (3) </b>	0	0	0	0	0	0	0
2022-07-07	13:53:17	1	3	1	6.5.1	100	1	TNT_Think_CSm	fixation	0	5	1500	0	0	1	1495	1	+	8	0	0	0	0	0	0
2022-07-07	13:53:17	1	3	1	6.5.1	100	2	TNT_Think_CSm	Think	0	5	0	0	0	0	1000	1	THINK	8	0	0	0	0	0	0
2022-07-07	13:53:17	1	3	1	6.5.1	100	3	TNT_Think_CSm	TNT_Think_CSm	0	5	0	0	0	0	6000	4	Cue6.jpg	0	0	0	0	0	0	0
2022-07-07	13:53:17	1	3	1	6.5.1	100	4	TNT_Think_CSm	Intrusion	0	500	3000	0	81	1	594	1	How <b>often</b> did you <b>think</b> about the <b>scene</b>?   <center><br><b>NEVER (1)    BRIEFLY (2)   OFTEN (3) </b>	0	0	0	0	0	0	0
2022-07-07	13:53:17	1	3	1	6.5.1	101	1	TNT_NoThink_CSm	fixation	0	5	1500	0	0	1	1495	1	+	8	0	0	0	0	0	0
2022-07-07	13:53:17	1	3	1	6.5.1	101	2	TNT_NoThink_CSm	NoThink	0	5	0	0	0	0	1000	1	DON'T THINK	8	0	0	0	0	0	0
2022-07-07	13:53:17	1	3	1	6.5.1	101	3	TNT_NoThink_CSm	TNT_NoThink_CSm	0	5	0	0	0	0	3000	3	Cue1.jpg	0	0	0	0	0	0	0
2022-07-07	13:53:17	1	3	1	6.5.1	101	4	TNT_NoThink_CSm	Intrusion	0	1000	3000	0	79	1	1035	1	How <b>often</b> did you <b>think</b> about the <b>scene</b>?   <center><br><b>NEVER (1)    BRIEFLY (2)   OFTEN (3) </b>	0	0	0	0	0	0	0
2022-07-07	13:53:17	1	3	1	6.5.1	102	1	TNT_Object_CSp	fixation	0	5	500	0	0	1	495	1	+	8	0	0	0	0	0	0
2022-07-07	13:53:17	1	3	1	6.5.1	102	2	TNT_Object_CSp	Passive	0	5	0	0	0	0	1000	1	VIEW	8	0	0	0	0	0	0
2022-07-07	13:53:17	1	3	1	6.5.1	102	3	TNT_Object_CSp	TNT_Object_CSp	0	1500	0	0	0	0	3000	3	Object4.jpg	0	0	0	0	0	0	0
2022-07-07	13:53:17	1	3	1	6.5.1	103	1	TNT_Think_CSp	fixation	0	5	1000	0	0	1	995	1	+	8	0	0	0	0	0	0
2022-07-07	13:53:17	1	3	1	6.5.1	103	2	TNT_Think_CSp	Think	0	5	0	0	0	0	1000	1	THINK	0	0	0	0	0	0	0
2022-07-07	13:53:17	1	3	1	6.5.1	103	3	TNT_Think_CSp	TNT_Think_CSp	0	5	0	0	0	0	6000	3	Cue27.jpg	0	0	0	0	0	0	0
2022-07-07	13:53:17	1	3	1	6.5.1	103	4	TNT_Think_CSp	Intrusion	0	500	3000	0	81	1	991	1	How <b>often</b> did you <b>think</b> about the <b>scene</b>?   <center><br><b>NEVER (1)    BRIEFLY (2)   OFTEN (3) </b>	0	0	0	0	0	0	0
2022-07-07	13:53:17	1	3	1	6.5.1	104	1	TNT_Think_CSm	fixation	0	5	1500	0	0	1	1495	1	+	8	0	0	0	0	0	0
2022-07-07	13:53:17	1	3	1	6.5.1	104	2	TNT_Think_CSm	Think	0	5	0	0	0	0	1000	1	THINK	8	0	0	0	0	0	0
2022-07-07	13:53:17	1	3	1	6.5.1	104	3	TNT_Think_CSm	TNT_Think_CSm	0	5	0	0	0	0	6000	2	Cue9.jpg	0	0	0	0	0	0	0
2022-07-07	13:53:17	1	3	1	6.5.1	104	4	TNT_Think_CSm	Intrusion	0	1500	3000	0	0	0	1500	1	How <b>often</b> did you <b>think</b> about the <b>scene</b>?   <center><br><b>NEVER (1)    BRIEFLY (2)   OFTEN (3) </b>	0	0	0	0	0	0	0
2022-07-07	13:53:17	1	3	1	6.5.1	105	1	TNT_Think_CSm	fixation	0	5	1000	0	0	1	995	1	+	8	0	0	0	0	0	0
2022-07-07	13:53:17	1	3	1	6.5.1	105	2	TNT_Think_CSm	Think	0	5	0	0	0	0	1000	1	THINK	8	0	0	0	0	0	0
2022-07-07	13:53:17	1	3	1	6.5.1	105	3	TNT_Think_CSm	TNT_Think_CSm	0	5	0	0	0	0	6000	5	Cue36.jpg	0	0	0	0	0	0	0
2022-07-07	13:53:17	1	3	1	6.5.1	105	4	TNT_Think_CSm	Intrusion	0	1000	3000	0	81	1	517	1	How <b>often</b> did you <b>think</b> about the <b>scene</b>?   <center><br><b>NEVER (1)    BRIEFLY (2)   OFTEN (3) </b>	0	0	0	0	0	0	0
2022-07-07	13:53:17	1	3	1	6.5.1	106	1	TNT_NoThink_CSm	fixation	0	5	500	0	0	1	495	1	+	8	0	0	0	0	0	0
2022-07-07	13:53:17	1	3	1	6.5.1	106	2	TNT_NoThink_CSm	NoThink	0	5	0	0	0	0	1000	1	DON'T THINK	8	0	0	0	0	0	0
2022-07-07	13:53:17	1	3	1	6.5.1	106	3	TNT_NoThink_CSm	TNT_NoThink_CSm	0	5	0	0	0	0	3000	5	Cue30.jpg	0	0	0	0	0	0	0
2022-07-07	13:53:17	1	3	1	6.5.1	106	4	TNT_NoThink_CSm	Intrusion	0	500	3000	0	0	0	2500	1	How <b>often</b> did you <b>think</b> about the <b>scene</b>?   <center><br><b>NEVER (1)    BRIEFLY (2)   OFTEN (3) </b>	0	0	0	0	0	0	0
2022-07-07	13:53:17	1	3	1	6.5.1	107	1	TNT_NoThink_CSp	fixation	0	5	1000	0	0	1	995	1	+	8	0	0	0	0	0	0
2022-07-07	13:53:17	1	3	1	6.5.1	107	2	TNT_NoThink_CSp	NoThink	0	5	0	0	0	0	1000	1	DON'T THINK	9	0	0	0	0	0	0
2022-07-07	13:53:17	1	3	1	6.5.1	107	3	TNT_NoThink_CSp	TNT_NoThink_CSp	0	5	0	0	0	0	3000	4	Cue4.jpg	0	0	0	0	0	0	0
2022-07-07	13:53:17	1	3	1	6.5.1	107	4	TNT_NoThink_CSp	Intrusion	0	1500	3000	0	79	1	661	1	How <b>often</b> did you <b>think</b> about the <b>scene</b>?   <center><br><b>NEVER (1)    BRIEFLY (2)   OFTEN (3) </b>	0	0	0	0	0	0	0
2022-07-07	13:53:17	1	3	1	6.5.1	108	1	TNT_NoThink_CSm	fixation	0	5	500	0	0	1	495	1	+	8	0	0	0	0	0	0
2022-07-07	13:53:17	1	3	1	6.5.1	108	2	TNT_NoThink_CSm	NoThink	0	5	0	0	0	0	1000	1	DON'T THINK	8	0	0	0	0	0	0
2022-07-07	13:53:17	1	3	1	6.5.1	108	3	TNT_NoThink_CSm	TNT_NoThink_CSm	0	5	0	0	0	0	3000	6	Cue33.jpg	0	0	0	0	0	0	0
2022-07-07	13:53:17	1	3	1	6.5.1	108	4	TNT_NoThink_CSm	Intrusion	0	500	3000	0	79	1	614	1	How <b>often</b> did you <b>think</b> about the <b>scene</b>?   <center><br><b>NEVER (1)    BRIEFLY (2)   OFTEN (3) </b>	0	0	0	0	0	0	0
2022-07-07	13:53:17	1	3	1	6.5.1	109	1	TNT_Object_CSp	fixation	0	5	1500	0	0	1	1495	1	+	8	0	0	0	0	0	0
2022-07-07	13:53:17	1	3	1	6.5.1	109	2	TNT_Object_CSp	Passive	0	5	0	0	0	0	1000	1	VIEW	8	0	0	0	0	0	0
2022-07-07	13:53:17	1	3	1	6.5.1	109	3	TNT_Object_CSp	TNT_Object_CSp	0	1000	0	0	0	0	3000	4	Object3.jpg	0	0	0	0	0	0	0
2022-07-07	13:53:17	1	3	1	6.5.1	110	1	TNT_NoThink_CSm	fixation	0	5	1500	0	0	1	1495	1	+	8	0	0	0	0	0	0
2022-07-07	13:53:17	1	3	1	6.5.1	110	2	TNT_NoThink_CSm	NoThink	0	5	0	0	0	0	1000	1	DON'T THINK	0	0	0	0	0	0	0
2022-07-07	13:53:17	1	3	1	6.5.1	110	3	TNT_NoThink_CSm	TNT_NoThink_CSm	0	5	0	0	0	0	3000	1	Cue25.jpg	0	0	0	0	0	0	0
2022-07-07	13:53:17	1	3	1	6.5.1	110	4	TNT_NoThink_CSm	Intrusion	0	1500	3000	0	79	1	1482	1	How <b>often</b> did you <b>think</b> about the <b>scene</b>?   <center><br><b>NEVER (1)    BRIEFLY (2)   OFTEN (3) </b>	0	0	0	0	0	0	0
2022-07-07	13:53:17	1	3	1	6.5.1	111	1	TNT_Think_CSp	fixation	0	5	500	0	0	1	495	1	+	8	0	0	0	0	0	0
2022-07-07	13:53:17	1	3	1	6.5.1	111	2	TNT_Think_CSp	Think	0	5	0	0	0	0	1000	1	THINK	8	0	0	0	0	0	0
2022-07-07	13:53:17	1	3	1	6.5.1	111	3	TNT_Think_CSp	TNT_Think_CSp	0	5	0	0	0	0	6000	4	Cue34.jpg	0	0	0	0	0	0	0
2022-07-07	13:53:17	1	3	1	6.5.1	111	4	TNT_Think_CSp	Intrusion	0	1000	3000	0	81	1	1508	1	How <b>often</b> did you <b>think</b> about the <b>scene</b>?   <center><br><b>NEVER (1)    BRIEFLY (2)   OFTEN (3) </b>	0	0	0	0	0	0	0
2022-07-07	13:53:17	1	3	1	6.5.1	112	1	TNT_Object_CSp	fixation	0	5	1000	0	0	1	995	1	+	8	0	0	0	0	0	0
2022-07-07	13:53:17	1	3	1	6.5.1	112	2	TNT_Object_CSp	Passive	0	5	0	0	0	0	1000	1	VIEW	8	0	0	0	0	0	0
2022-07-07	13:53:17	1	3	1	6.5.1	112	3	TNT_Object_CSp	TNT_Object_CSp	0	500	0	0	0	0	3000	1	Object1.jpg	0	0	0	0	0	0	0
2022-07-07	13:53:17	1	3	1	6.5.1	113	1	TNT_Think_CSm	fixation	0	5	1000	0	0	1	995	1	+	8	0	0	0	0	0	0
2022-07-07	13:53:17	1	3	1	6.5.1	113	2	TNT_Think_CSm	Think	0	5	0	0	0	0	1000	1	THINK	0	0	0	0	0	0	0
2022-07-07	13:53:17	1	3	1	6.5.1	113	3	TNT_Think_CSm	TNT_Think_CSm	0	5	0	0	0	0	6000	1	Cue14.jpg	0	0	0	0	0	0	0
2022-07-07	13:53:17	1	3	1	6.5.1	113	4	TNT_Think_CSm	Intrusion	0	1500	3000	0	81	1	1115	1	How <b>often</b> did you <b>think</b> about the <b>scene</b>?   <center><br><b>NEVER (1)    BRIEFLY (2)   OFTEN (3) </b>	0	0	0	0	0	0	0
2022-07-07	13:53:17	1	3	1	6.5.1	114	1	TNT_NoThink_CSm	fixation	0	5	500	0	0	1	495	1	+	8	0	0	0	0	0	0
2022-07-07	13:53:17	1	3	1	6.5.1	114	2	TNT_NoThink_CSm	NoThink	0	5	0	0	0	0	1000	1	DON'T THINK	8	0	0	0	0	0	0
2022-07-07	13:53:17	1	3	1	6.5.1	114	3	TNT_NoThink_CSm	TNT_NoThink_CSm	0	5	0	0	0	0	3000	2	Cue2.jpg	0	0	0	0	0	0	0
2022-07-07	13:53:17	1	3	1	6.5.1	114	4	TNT_NoThink_CSm	Intrusion	0	1000	3000	0	79	1	1005	1	How <b>often</b> did you <b>think</b> about the <b>scene</b>?   <center><br><b>NEVER (1)    BRIEFLY (2)   OFTEN (3) </b>	0	0	0	0	0	0	0
2022-07-07	13:53:17	1	3	1	6.5.1	115	1	TNT_Think_CSp	fixation	0	5	1500	0	0	1	1495	1	+	8	0	0	0	0	0	0
2022-07-07	13:53:17	1	3	1	6.5.1	115	2	TNT_Think_CSp	Think	0	5	0	0	0	0	1000	1	THINK	8	0	0	0	0	0	0
2022-07-07	13:53:17	1	3	1	6.5.1	115	3	TNT_Think_CSp	TNT_Think_CSp	0	5	0	0	0	0	6000	5	Cue17.jpg	0	0	0	0	0	0	0
2022-07-07	13:53:17	1	3	1	6.5.1	115	4	TNT_Think_CSp	Intrusion	0	500	3000	0	81	1	1182	1	How <b>often</b> did you <b>think</b> about the <b>scene</b>?   <center><br><b>NEVER (1)    BRIEFLY (2)   OFTEN (3) </b>	0	0	0	0	0	0	0
2022-07-07	13:53:17	1	3	1	6.5.1	116	1	TNT_Object_CSm	fixation	0	5	1500	0	0	1	1495	1	+	8	0	0	0	0	0	0
2022-07-07	13:53:17	1	3	1	6.5.1	116	2	TNT_Object_CSm	Passive	0	5	0	0	0	0	1000	1	VIEW	8	0	0	0	0	0	0
2022-07-07	13:53:17	1	3	1	6.5.1	116	3	TNT_Object_CSm	TNT_Object_CSm	0	1500	0	0	0	0	3000	1	Object7.jpg	0	0	0	0	0	0	0
2022-07-07	13:53:17	1	3	1	6.5.1	117	1	TNT_Think_CSm	fixation	0	5	1000	0	0	1	995	1	+	8	0	0	0	0	0	0
2022-07-07	13:53:17	1	3	1	6.5.1	117	2	TNT_Think_CSm	Think	0	5	0	0	0	0	1000	1	THINK	0	0	0	0	0	0	0
2022-07-07	13:53:17	1	3	1	6.5.1	117	3	TNT_Think_CSm	TNT_Think_CSm	0	5	0	0	0	0	6000	6	Cue10.jpg	0	0	0	0	0	0	0
2022-07-07	13:53:17	1	3	1	6.5.1	117	4	TNT_Think_CSm	Intrusion	0	500	3000	0	81	1	1066	1	How <b>often</b> did you <b>think</b> about the <b>scene</b>?   <center><br><b>NEVER (1)    BRIEFLY (2)   OFTEN (3) </b>	0	0	0	0	0	0	0
2022-07-07	13:53:17	1	3	1	6.5.1	118	1	TNT_Object_CSm	fixation	0	5	500	0	0	1	495	1	+	8	0	0	0	0	0	0
2022-07-07	13:53:17	1	3	1	6.5.1	118	2	TNT_Object_CSm	Passive	0	5	0	0	0	0	1000	1	VIEW	0	0	0	0	0	0	0
2022-07-07	13:53:17	1	3	1	6.5.1	118	3	TNT_Object_CSm	TNT_Object_CSm	0	500	0	0	0	0	3000	3	Object5.jpg	0	0	0	0	0	0	0
2022-07-07	13:53:17	1	3	1	6.5.1	119	1	TNT_NoThink_CSp	fixation	0	5	500	0	0	1	495	1	+	8	0	0	0	0	0	0
2022-07-07	13:53:17	1	3	1	6.5.1	119	2	TNT_NoThink_CSp	NoThink	0	5	0	0	0	0	1000	1	DON'T THINK	0	0	0	0	0	0	0
2022-07-07	13:53:17	1	3	1	6.5.1	119	3	TNT_NoThink_CSp	TNT_NoThink_CSp	0	5	0	0	0	0	3000	3	Cue5.jpg	0	0	0	0	0	0	0
2022-07-07	13:53:17	1	3	1	6.5.1	119	4	TNT_NoThink_CSp	Intrusion	0	1500	3000	0	79	1	610	1	How <b>often</b> did you <b>think</b> about the <b>scene</b>?   <center><br><b>NEVER (1)    BRIEFLY (2)   OFTEN (3) </b>	0	0	0	0	0	0	0
2022-07-07	13:53:17	1	3	1	6.5.1	120	1	TNT_NoThink_CSp	fixation	0	5	1500	0	0	1	1495	1	+	8	0	0	0	0	0	0
2022-07-07	13:53:17	1	3	1	6.5.1	120	2	TNT_NoThink_CSp	NoThink	0	5	0	0	0	0	1000	1	DON'T THINK	9	0	0	0	0	0	0
2022-07-07	13:53:17	1	3	1	6.5.1	120	3	TNT_NoThink_CSp	TNT_NoThink_CSp	0	5	0	0	0	0	3000	5	Cue35.jpg	0	0	0	0	0	0	0
2022-07-07	13:53:17	1	3	1	6.5.1	120	4	TNT_NoThink_CSp	Intrusion	0	1000	3000	0	79	1	619	1	How <b>often</b> did you <b>think</b> about the <b>scene</b>?   <center><br><b>NEVER (1)    BRIEFLY (2)   OFTEN (3) </b>	0	0	0	0	0	0	0
2022-07-07	13:53:17	1	3	1	6.5.1	121	1	TNT_Object_CSm	fixation	0	5	1000	0	0	1	995	1	+	8	0	0	0	0	0	0
2022-07-07	13:53:17	1	3	1	6.5.1	121	2	TNT_Object_CSm	Passive	0	5	0	0	0	0	1000	1	VIEW	8	0	0	0	0	0	0
2022-07-07	13:53:17	1	3	1	6.5.1	121	3	TNT_Object_CSm	TNT_Object_CSm	0	1000	0	0	0	0	3000	4	Object6.jpg	0	0	0	0	0	0	0
2022-07-07	13:53:17	1	3	1	6.5.1	122	1	TNT_NoThink_CSm	fixation	0	5	500	0	0	1	495	1	+	8	0	0	0	0	0	0
2022-07-07	13:53:17	1	3	1	6.5.1	122	2	TNT_NoThink_CSm	NoThink	0	5	0	0	0	0	1000	1	DON'T THINK	0	0	0	0	0	0	0
2022-07-07	13:53:17	1	3	1	6.5.1	122	3	TNT_NoThink_CSm	TNT_NoThink_CSm	0	5	0	0	0	0	3000	4	Cue21.jpg	0	0	0	0	0	0	0
2022-07-07	13:53:17	1	3	1	6.5.1	122	4	TNT_NoThink_CSm	Intrusion	0	1500	3000	0	79	1	523	1	How <b>often</b> did you <b>think</b> about the <b>scene</b>?   <center><br><b>NEVER (1)    BRIEFLY (2)   OFTEN (3) </b>	0	0	0	0	0	0	0
2022-07-07	13:53:17	1	3	1	6.5.1	123	1	TNT_NoThink_CSp	fixation	0	5	1500	0	0	1	1495	1	+	8	0	0	0	0	0	0
2022-07-07	13:53:17	1	3	1	6.5.1	123	2	TNT_NoThink_CSp	NoThink	0	5	0	0	0	0	1000	1	DON'T THINK	8	0	0	0	0	0	0
2022-07-07	13:53:17	1	3	1	6.5.1	123	3	TNT_NoThink_CSp	TNT_NoThink_CSp	0	5	0	0	0	0	3000	2	Cue26.jpg	0	0	0	0	0	0	0
2022-07-07	13:53:17	1	3	1	6.5.1	123	4	TNT_NoThink_CSp	Intrusion	0	1000	3000	0	0	0	2000	1	How <b>often</b> did you <b>think</b> about the <b>scene</b>?   <center><br><b>NEVER (1)    BRIEFLY (2)   OFTEN (3) </b>	0	0	0	0	0	0	0
2022-07-07	13:53:17	1	3	1	6.5.1	124	1	TNT_NoThink_CSp	fixation	0	5	1000	0	0	1	995	1	+	8	0	0	0	0	0	0
2022-07-07	13:53:17	1	3	1	6.5.1	124	2	TNT_NoThink_CSp	NoThink	0	5	0	0	0	0	1000	1	DON'T THINK	9	0	0	0	0	0	0
2022-07-07	13:53:17	1	3	1	6.5.1	124	3	TNT_NoThink_CSp	TNT_NoThink_CSp	0	5	0	0	0	0	3000	1	Cue22.jpg	0	0	0	0	0	0	0
2022-07-07	13:53:17	1	3	1	6.5.1	124	4	TNT_NoThink_CSp	Intrusion	0	500	3000	0	79	1	978	1	How <b>often</b> did you <b>think</b> about the <b>scene</b>?   <center><br><b>NEVER (1)    BRIEFLY (2)   OFTEN (3) </b>	0	0	0	0	0	0	0
2022-07-07	13:53:17	1	3	1	6.5.1	125	1	TNT_Think_CSp	fixation	0	5	1500	0	0	1	1495	1	+	8	0	0	0	0	0	0
2022-07-07	13:53:17	1	3	1	6.5.1	125	2	TNT_Think_CSp	Think	0	5	0	0	0	0	1000	1	THINK	8	0	0	0	0	0	0
2022-07-07	13:53:17	1	3	1	6.5.1	125	3	TNT_Think_CSp	TNT_Think_CSp	0	5	0	0	0	0	6000	2	Cue18.jpg	0	0	0	0	0	0	0
2022-07-07	13:53:17	1	3	1	6.5.1	125	4	TNT_Think_CSp	Intrusion	0	500	3000	0	81	1	1076	1	How <b>often</b> did you <b>think</b> about the <b>scene</b>?   <center><br><b>NEVER (1)    BRIEFLY (2)   OFTEN (3) </b>	0	0	0	0	0	0	0
2022-07-07	13:53:17	1	3	1	6.5.1	126	1	TNT_Think_CSp	fixation	0	5	1000	0	0	1	995	1	+	7	0	0	0	0	0	0
2022-07-07	13:53:17	1	3	1	6.5.1	126	2	TNT_Think_CSp	Think	0	5	0	0	0	0	1000	1	THINK	8	0	0	0	0	0	0
2022-07-07	13:53:17	1	3	1	6.5.1	126	3	TNT_Think_CSp	TNT_Think_CSp	0	5	0	0	0	0	6000	1	Cue28.jpg	0	0	0	0	0	0	0
2022-07-07	13:53:17	1	3	1	6.5.1	126	4	TNT_Think_CSp	Intrusion	0	1000	3000	0	81	1	857	1	How <b>often</b> did you <b>think</b> about the <b>scene</b>?   <center><br><b>NEVER (1)    BRIEFLY (2)   OFTEN (3) </b>	0	0	0	0	0	0	0
2022-07-07	13:53:17	1	3	1	6.5.1	127	1	TNT_Think_CSm	fixation	0	5	500	0	0	1	495	1	+	8	0	0	0	0	0	0
2022-07-07	13:53:17	1	3	1	6.5.1	127	2	TNT_Think_CSm	Think	0	5	0	0	0	0	1000	1	THINK	8	0	0	0	0	0	0
2022-07-07	13:53:17	1	3	1	6.5.1	127	3	TNT_Think_CSm	TNT_Think_CSm	0	5	0	0	0	0	6000	3	Cue20.jpg	0	0	0	0	0	0	0
2022-07-07	13:53:17	1	3	1	6.5.1	127	4	TNT_Think_CSm	Intrusion	0	1500	3000	0	81	1	739	1	How <b>often</b> did you <b>think</b> about the <b>scene</b>?   <center><br><b>NEVER (1)    BRIEFLY (2)   OFTEN (3) </b>	0	0	0	0	0	0	0
2022-07-07	13:53:17	1	3	1	6.5.1	128	1	TNT_Object_CSm	fixation	0	5	1000	0	0	1	995	1	+	18	0	0	0	0	0	0
2022-07-07	13:53:17	1	3	1	6.5.1	128	2	TNT_Object_CSm	Passive	0	5	0	0	0	0	1000	1	VIEW	0	0	0	0	0	0	0
2022-07-07	13:53:17	1	3	1	6.5.1	128	3	TNT_Object_CSm	TNT_Object_CSm	0	1000	0	0	0	0	3000	2	Object8.jpg	0	0	0	0	0	0	0
2022-07-07	13:53:17	1	3	1	6.5.1	129	1	TNT_Object_CSp	fixation	0	5	1500	0	0	1	1495	1	+	8	0	0	0	0	0	0
2022-07-07	13:53:17	1	3	1	6.5.1	129	2	TNT_Object_CSp	Passive	0	5	0	0	0	0	1000	1	VIEW	0	0	0	0	0	0	0
2022-07-07	13:53:17	1	3	1	6.5.1	129	3	TNT_Object_CSp	TNT_Object_CSp	0	500	0	0	0	0	3000	2	Object2.jpg	0	0	0	0	0	0	0
2022-07-07	13:53:17	1	3	1	6.5.1	130	1	between_TNT	between_TNT	0	5	0	0	0	0	15000	1	<center> <br><br><br>This is the end of the block. <br><br> You have a 15 second break.	8	0	0	0	0	0	0
2022-07-07	13:53:17	1	3	1	6.5.1	131	1	TNT_Object_CSm	fixation	0	5	500	0	0	1	495	1	+	18	0	0	0	0	0	0
2022-07-07	13:53:17	1	3	1	6.5.1	131	2	TNT_Object_CSm	Passive	0	5	0	0	0	0	1000	1	VIEW	0	0	0	0	0	0	0
2022-07-07	13:53:17	1	3	1	6.5.1	131	3	TNT_Object_CSm	TNT_Object_CSm	0	1500	0	0	0	0	3000	3	Object5.jpg	0	0	0	0	0	0	0
2022-07-07	13:53:17	1	3	1	6.5.1	132	1	TNT_NoThink_CSp	fixation	0	5	1500	0	0	1	1495	1	+	8	0	0	0	0	0	0
2022-07-07	13:53:17	1	3	1	6.5.1	132	2	TNT_NoThink_CSp	NoThink	0	5	0	0	0	0	1000	1	DON'T THINK	0	0	0	0	0	0	0
2022-07-07	13:53:17	1	3	1	6.5.1	132	3	TNT_NoThink_CSp	TNT_NoThink_CSp	0	5	0	0	0	0	3000	3	Cue5.jpg	0	0	0	0	0	0	0
2022-07-07	13:53:17	1	3	1	6.5.1	132	4	TNT_NoThink_CSp	Intrusion	0	500	3000	0	79	1	702	1	How <b>often</b> did you <b>think</b> about the <b>scene</b>?   <center><br><b>NEVER (1)    BRIEFLY (2)   OFTEN (3) </b>	0	0	0	0	0	0	0
2022-07-07	13:53:17	1	3	1	6.5.1	133	1	TNT_NoThink_CSp	fixation	0	5	1000	0	0	1	995	1	+	8	0	0	0	0	0	0
2022-07-07	13:53:17	1	3	1	6.5.1	133	2	TNT_NoThink_CSp	NoThink	0	5	0	0	0	0	1000	1	DON'T THINK	8	0	0	0	0	0	0
2022-07-07	13:53:17	1	3	1	6.5.1	133	3	TNT_NoThink_CSp	TNT_NoThink_CSp	0	5	0	0	0	0	3000	5	Cue35.jpg	0	0	0	0	0	0	0
2022-07-07	13:53:17	1	3	1	6.5.1	133	4	TNT_NoThink_CSp	Intrusion	0	1500	3000	0	79	1	523	1	How <b>often</b> did you <b>think</b> about the <b>scene</b>?   <center><br><b>NEVER (1)    BRIEFLY (2)   OFTEN (3) </b>	0	0	0	0	0	0	0
2022-07-07	13:53:17	1	3	1	6.5.1	134	1	TNT_Think_CSp	fixation	0	5	500	0	0	1	495	1	+	8	0	0	0	0	0	0
2022-07-07	13:53:17	1	3	1	6.5.1	134	2	TNT_Think_CSp	Think	0	5	0	0	0	0	1000	1	THINK	8	0	0	0	0	0	0
2022-07-07	13:53:17	1	3	1	6.5.1	134	3	TNT_Think_CSp	TNT_Think_CSp	0	5	0	0	0	0	6000	6	Cue19.jpg	0	0	0	0	0	0	0
2022-07-07	13:53:17	1	3	1	6.5.1	134	4	TNT_Think_CSp	Intrusion	0	1000	3000	0	81	1	373	1	How <b>often</b> did you <b>think</b> about the <b>scene</b>?   <center><br><b>NEVER (1)    BRIEFLY (2)   OFTEN (3) </b>	0	0	0	0	0	0	0
2022-07-07	13:53:17	1	3	1	6.5.1	135	1	TNT_NoThink_CSm	fixation	0	5	1500	0	0	1	1495	1	+	8	0	0	0	0	0	0
2022-07-07	13:53:17	1	3	1	6.5.1	135	2	TNT_NoThink_CSm	NoThink	0	5	0	0	0	0	1000	1	DON'T THINK	8	0	0	0	0	0	0
2022-07-07	13:53:17	1	3	1	6.5.1	135	3	TNT_NoThink_CSm	TNT_NoThink_CSm	0	5	0	0	0	0	3000	6	Cue33.jpg	0	0	0	0	0	0	0
2022-07-07	13:53:17	1	3	1	6.5.1	135	4	TNT_NoThink_CSm	Intrusion	0	1500	3000	0	79	1	430	1	How <b>often</b> did you <b>think</b> about the <b>scene</b>?   <center><br><b>NEVER (1)    BRIEFLY (2)   OFTEN (3) </b>	0	0	0	0	0	0	0
2022-07-07	13:53:17	1	3	1	6.5.1	136	1	TNT_Object_CSm	fixation	0	5	500	0	0	1	495	1	+	8	0	0	0	0	0	0
2022-07-07	13:53:17	1	3	1	6.5.1	136	2	TNT_Object_CSm	Passive	0	5	0	0	0	0	1000	1	VIEW	8	0	0	0	0	0	0
2022-07-07	13:53:17	1	3	1	6.5.1	136	3	TNT_Object_CSm	TNT_Object_CSm	0	500	0	0	0	0	3000	2	Object8.jpg	0	0	0	0	0	0	0
2022-07-07	13:53:17	1	3	1	6.5.1	137	1	TNT_Think_CSm	fixation	0	5	1000	0	0	1	995	1	+	8	0	0	0	0	0	0
2022-07-07	13:53:17	1	3	1	6.5.1	137	2	TNT_Think_CSm	Think	0	5	0	0	0	0	1000	1	THINK	0	0	0	0	0	0	0
2022-07-07	13:53:17	1	3	1	6.5.1	137	3	TNT_Think_CSm	TNT_Think_CSm	0	5	0	0	0	0	6000	2	Cue9.jpg	0	0	0	0	0	0	0
2022-07-07	13:53:17	1	3	1	6.5.1	137	4	TNT_Think_CSm	Intrusion	0	1000	3000	0	81	1	714	1	How <b>often</b> did you <b>think</b> about the <b>scene</b>?   <center><br><b>NEVER (1)    BRIEFLY (2)   OFTEN (3) </b>	0	0	0	0	0	0	0
2022-07-07	13:53:17	1	3	1	6.5.1	138	1	TNT_NoThink_CSm	fixation	0	5	500	0	0	1	495	1	+	8	0	0	0	0	0	0
2022-07-07	13:53:17	1	3	1	6.5.1	138	2	TNT_NoThink_CSm	NoThink	0	5	0	0	0	0	1000	1	DON'T THINK	8	0	0	0	0	0	0
2022-07-07	13:53:17	1	3	1	6.5.1	138	3	TNT_NoThink_CSm	TNT_NoThink_CSm	0	5	0	0	0	0	3000	3	Cue1.jpg	0	0	0	0	0	0	0
2022-07-07	13:53:17	1	3	1	6.5.1	138	4	TNT_NoThink_CSm	Intrusion	0	500	3000	0	79	1	795	1	How <b>often</b> did you <b>think</b> about the <b>scene</b>?   <center><br><b>NEVER (1)    BRIEFLY (2)   OFTEN (3) </b>	0	0	0	0	0	0	0
2022-07-07	13:53:17	1	3	1	6.5.1	139	1	TNT_Think_CSm	fixation	0	5	1500	0	0	1	1495	1	+	8	0	0	0	0	0	0
2022-07-07	13:53:17	1	3	1	6.5.1	139	2	TNT_Think_CSm	Think	0	5	0	0	0	0	1000	1	THINK	8	0	0	0	0	0	0
