date	time	group	subject	session	build	blocknum	trialnum	blockcode	trialcode	pretrialpause	posttrialpause	trialduration	trialtimeout	response	correct	latency	stimulusnumber1	stimulusitem1	stimulusonset1	stimulusnumber2	stimulusitem2	stimulusonset2	stimulusnumber3	stimulusitem3	stimulusonset3
2022-07-09	14:01:15	1	4	1	6.5.2	1	1	Reminder_Objects_CSp	fixation	0	5	1000	0	0	1	995	1	+	-10	0	0	0	0	0	0
2022-07-09	14:01:15	1	4	1	6.5.2	1	2	Reminder_Objects_CSp	Objects_CSp	0	5	0	0	0	0	4000	3	Object2.jpg	-10	0	0	0	0	0	0
2022-07-09	14:01:15	1	4	1	6.5.2	1	3	Reminder_Objects_CSp	expectancy_object	0	1500	0	0	38	0	3238	1	When you saw the <b>object</b>,   to what <b>degree</b> did you expect the <b>unpleasant sound to occur</b>?	14	0	0	0	0	0	0
2022-07-09	14:01:15	1	4	1	6.5.2	2	1	Reminder_NoThink_CSp	fixation	0	5	500	0	0	1	495	1	+	-10	0	0	0	0	0	0
2022-07-09	14:01:15	1	4	1	6.5.2	2	2	Reminder_NoThink_CSp	NoThink_CSp	0	5	0	0	0	0	4000	1	+	-16	6	Cue12.jpg	-16	6	Target12.jpg	-16
2022-07-09	14:01:15	1	4	1	6.5.2	2	3	Reminder_NoThink_CSp	valence	0	5	0	0	25	0	4776	1	I found these images to be...	-2	0	0	0	0	0	0
2022-07-09	14:01:15	1	4	1	6.5.2	2	4	Reminder_NoThink_CSp	expectancy	0	1000	0	0	81	0	2937	1	When you saw the <b>object-scene</b>,   to what <b>degree</b> did you expect the <b>unpleasant sound to occur</b>?	-8	0	0	0	0	0	0
2022-07-09	14:01:15	1	4	1	6.5.2	3	1	Reminder_NoThink_CSm	fixation	0	5	1500	0	0	1	1495	1	+	-11	0	0	0	0	0	0
2022-07-09	14:01:15	1	4	1	6.5.2	3	2	Reminder_NoThink_CSm	NoThink_CSm	0	5	0	0	0	0	4000	1	+	-16	3	Cue34.jpg	-16	3	Target34.jpg	-16
2022-07-09	14:01:15	1	4	1	6.5.2	3	3	Reminder_NoThink_CSm	valence	0	5	0	0	32	0	2503	1	I found these images to be...	-15	0	0	0	0	0	0
2022-07-09	14:01:15	1	4	1	6.5.2	3	4	Reminder_NoThink_CSm	expectancy	0	1500	0	0	32	0	2677	1	When you saw the <b>object-scene</b>,   to what <b>degree</b> did you expect the <b>unpleasant sound to occur</b>?	-9	0	0	0	0	0	0
2022-07-09	14:01:15	1	4	1	6.5.2	4	1	Reminder_NoThink_CSm	fixation	0	5	1500	0	0	1	1495	1	+	-11	0	0	0	0	0	0
2022-07-09	14:01:15	1	4	1	6.5.2	4	2	Reminder_NoThink_CSm	NoThink_CSm	0	5	0	0	0	0	4000	1	+	-11	5	Cue13.jpg	-11	5	Target13.jpg	-11
2022-07-09	14:01:15	1	4	1	6.5.2	4	3	Reminder_NoThink_CSm	valence	0	5	0	0	22	0	2300	1	I found these images to be...	-16	0	0	0	0	0	0
2022-07-09	14:01:15	1	4	1	6.5.2	4	4	Reminder_NoThink_CSm	expectancy	0	500	0	0	18	0	2550	1	When you saw the <b>object-scene</b>,   to what <b>degree</b> did you expect the <b>unpleasant sound to occur</b>?	-9	0	0	0	0	0	0
2022-07-09	14:01:15	1	4	1	6.5.2	5	1	Reminder_Baseline_CSm	fixation	0	5	1000	0	0	1	995	1	+	-11	0	0	0	0	0	0
2022-07-09	14:01:15	1	4	1	6.5.2	5	2	Reminder_Baseline_CSm	Baseline_CSm	0	5	0	0	0	0	4000	1	+	-16	5	Cue18.jpg	-16	5	Target18.jpg	-16
2022-07-09	14:01:15	1	4	1	6.5.2	5	3	Reminder_Baseline_CSm	valence	0	5	0	0	30	0	2893	1	I found these images to be...	-16	0	0	0	0	0	0
2022-07-09	14:01:15	1	4	1	6.5.2	5	4	Reminder_Baseline_CSm	expectancy	0	500	0	0	26	0	3241	1	When you saw the <b>object-scene</b>,   to what <b>degree</b> did you expect the <b>unpleasant sound to occur</b>?	-9	0	0	0	0	0	0
2022-07-09	14:01:15	1	4	1	6.5.2	6	1	Reminder_Objects_CSm	fixation	0	5	500	0	0	1	495	1	+	-10	0	0	0	0	0	0
2022-07-09	14:01:15	1	4	1	6.5.2	6	2	Reminder_Objects_CSm	Objects_CSm	0	5	0	0	0	0	4000	4	Object5.jpg	-16	0	0	0	0	0	0
2022-07-09	14:01:15	1	4	1	6.5.2	6	3	Reminder_Objects_CSm	expectancy_object	0	1000	0	0	50	0	1256	1	When you saw the <b>object</b>,   to what <b>degree</b> did you expect the <b>unpleasant sound to occur</b>?	-15	0	0	0	0	0	0
2022-07-09	14:01:15	1	4	1	6.5.2	7	1	Reminder_NoThink_CSp	fixation	0	5	1500	0	0	1	1495	1	+	-11	0	0	0	0	0	0
2022-07-09	14:01:15	1	4	1	6.5.2	7	2	Reminder_NoThink_CSp	NoThink_CSp	0	5	0	0	0	0	4000	1	+	-16	5	Cue19.jpg	-16	5	Target19.jpg	-16
2022-07-09	14:01:15	1	4	1	6.5.2	7	3	Reminder_NoThink_CSp	valence	0	5	0	0	33	0	2961	1	I found these images to be...	-15	0	0	0	0	0	0
2022-07-09	14:01:15	1	4	1	6.5.2	7	4	Reminder_NoThink_CSp	expectancy	0	1500	0	0	80	0	2310	1	When you saw the <b>object-scene</b>,   to what <b>degree</b> did you expect the <b>unpleasant sound to occur</b>?	-9	0	0	0	0	0	0
2022-07-09	14:01:15	1	4	1	6.5.2	8	1	Reminder_Think_CSp	fixation	0	5	500	0	0	1	495	1	+	-11	0	0	0	0	0	0
2022-07-09	14:01:15	1	4	1	6.5.2	8	2	Reminder_Think_CSp	Think_CSp	0	5	0	0	0	0	4000	1	+	-16	6	Cue4.jpg	-16	6	Target4.jpg	-16
2022-07-09	14:01:15	1	4	1	6.5.2	8	3	Reminder_Think_CSp	valence	0	5	0	0	30	0	2308	1	I found these images to be...	-16	0	0	0	0	0	0
2022-07-09	14:01:15	1	4	1	6.5.2	8	4	Reminder_Think_CSp	expectancy	0	1000	0	0	85	0	2368	1	When you saw the <b>object-scene</b>,   to what <b>degree</b> did you expect the <b>unpleasant sound to occur</b>?	-9	0	0	0	0	0	0
2022-07-09	14:01:15	1	4	1	6.5.2	9	1	Reminder_NoThink_CSp	fixation	0	5	1000	0	0	1	995	1	+	-11	0	0	0	0	0	0
2022-07-09	14:01:15	1	4	1	6.5.2	9	2	Reminder_NoThink_CSp	NoThink_CSp	0	5	0	0	0	0	4000	1	+	-16	2	Cue30.jpg	-16	2	Target30.jpg	-16
2022-07-09	14:01:15	1	4	1	6.5.2	9	3	Reminder_NoThink_CSp	valence	0	5	0	0	13	0	5187	1	I found these images to be...	-15	0	0	0	0	0	0
2022-07-09	14:01:15	1	4	1	6.5.2	9	4	Reminder_NoThink_CSp	expectancy	0	500	0	0	70	0	2386	1	When you saw the <b>object-scene</b>,   to what <b>degree</b> did you expect the <b>unpleasant sound to occur</b>?	-9	0	0	0	0	0	0
2022-07-09	14:01:15	1	4	1	6.5.2	10	1	Reminder_NoThink_CSp	fixation	0	5	1000	0	0	1	995	1	+	-10	0	0	0	0	0	0
2022-07-09	14:01:15	1	4	1	6.5.2	10	2	Reminder_NoThink_CSp	NoThink_CSp	0	5	0	0	0	0	4000	1	+	-16	1	Cue17.jpg	-16	1	Target17.jpg	-16
2022-07-09	14:01:15	1	4	1	6.5.2	10	3	Reminder_NoThink_CSp	valence	0	5	0	0	27	0	2244	1	I found these images to be...	-15	0	0	0	0	0	0
2022-07-09	14:01:15	1	4	1	6.5.2	10	4	Reminder_NoThink_CSp	expectancy	0	1500	0	0	76	0	1875	1	When you saw the <b>object-scene</b>,   to what <b>degree</b> did you expect the <b>unpleasant sound to occur</b>?	-8	0	0	0	0	0	0
2022-07-09	14:01:15	1	4	1	6.5.2	11	1	PracticeItems_NoThink	fixation	0	5	1500	0	0	1	1495	1	+	-10	0	0	0	0	0	0
2022-07-09	14:01:15	1	4	1	6.5.2	11	2	PracticeItems_NoThink	PracticeItems_NoThink	0	5	0	0	0	0	4000	1	+	-16	2	Cue40.jpg	-16	2	Target40.jpg	-16
2022-07-09	14:01:15	1	4	1	6.5.2	11	3	PracticeItems_NoThink	valence	0	5	0	0	0	0	2773	1	I found these images to be...	-15	0	0	0	0	0	0
2022-07-09	14:01:15	1	4	1	6.5.2	11	4	PracticeItems_NoThink	expectancy	0	1000	0	0	31	0	4612	1	When you saw the <b>object-scene</b>,   to what <b>degree</b> did you expect the <b>unpleasant sound to occur</b>?	-5	0	0	0	0	0	0
2022-07-09	14:01:15	1	4	1	6.5.2	12	1	Reminder_Objects_CSm	fixation	0	5	500	0	0	1	495	1	+	-10	0	0	0	0	0	0
2022-07-09	14:01:15	1	4	1	6.5.2	12	2	Reminder_Objects_CSm	Objects_CSm	0	5	0	0	0	0	4000	2	Object3.jpg	-16	0	0	0	0	0	0
2022-07-09	14:01:15	1	4	1	6.5.2	12	3	Reminder_Objects_CSm	expectancy_object	0	500	0	0	50	0	716	1	When you saw the <b>object</b>,   to what <b>degree</b> did you expect the <b>unpleasant sound to occur</b>?	-16	0	0	0	0	0	0
2022-07-09	14:01:15	1	4	1	6.5.2	13	1	Reminder_NoThink_CSm	fixation	0	5	1500	0	0	1	1495	1	+	-11	0	0	0	0	0	0
2022-07-09	14:01:15	1	4	1	6.5.2	13	2	Reminder_NoThink_CSm	NoThink_CSm	0	5	0	0	0	0	4000	1	+	-16	1	Cue36.jpg	-16	1	Target36.jpg	-16
2022-07-09	14:01:15	1	4	1	6.5.2	13	3	Reminder_NoThink_CSm	valence	0	5	0	0	50	0	1071	1	I found these images to be...	-16	0	0	0	0	0	0
2022-07-09	14:01:15	1	4	1	6.5.2	13	4	Reminder_NoThink_CSm	expectancy	0	1500	0	0	41	0	2379	1	When you saw the <b>object-scene</b>,   to what <b>degree</b> did you expect the <b>unpleasant sound to occur</b>?	-6	0	0	0	0	0	0
2022-07-09	14:01:15	1	4	1	6.5.2	14	1	Reminder_Think_CSp	fixation	0	5	500	0	0	1	495	1	+	-11	0	0	0	0	0	0
2022-07-09	14:01:15	1	4	1	6.5.2	14	2	Reminder_Think_CSp	Think_CSp	0	5	0	0	0	0	4000	1	+	-16	4	Cue31.jpg	-16	4	Target31.jpg	-16
2022-07-09	14:01:15	1	4	1	6.5.2	14	3	Reminder_Think_CSp	valence	0	5	0	0	35	0	3576	1	I found these images to be...	-16	0	0	0	0	0	0
2022-07-09	14:01:15	1	4	1	6.5.2	14	4	Reminder_Think_CSp	expectancy	0	1000	0	0	91	0	2459	1	When you saw the <b>object-scene</b>,   to what <b>degree</b> did you expect the <b>unpleasant sound to occur</b>?	-9	0	0	0	0	0	0
2022-07-09	14:01:15	1	4	1	6.5.2	15	1	Reminder_Think_CSp	fixation	0	5	1000	0	0	1	995	1	+	-11	0	0	0	0	0	0
2022-07-09	14:01:15	1	4	1	6.5.2	15	2	Reminder_Think_CSp	Think_CSp	0	5	0	0	0	0	4000	1	+	-16	5	Cue7.jpg	-16	5	Target7.jpg	-16
2022-07-09	14:01:15	1	4	1	6.5.2	15	3	Reminder_Think_CSp	valence	0	5	0	0	23	0	2793	1	I found these images to be...	-16	0	0	0	0	0	0
2022-07-09	14:01:15	1	4	1	6.5.2	15	4	Reminder_Think_CSp	expectancy	0	500	0	0	83	0	2611	1	When you saw the <b>object-scene</b>,   to what <b>degree</b> did you expect the <b>unpleasant sound to occur</b>?	-9	0	0	0	0	0	0
2022-07-09	14:01:15	1	4	1	6.5.2	16	1	PracticeItems_Think	fixation	0	5	1000	0	0	1	995	1	+	-10	0	0	0	0	0	0
2022-07-09	14:01:15	1	4	1	6.5.2	16	2	PracticeItems_Think	PracticeItems_Think	0	5	0	0	0	0	4000	1	+	-16	1	Cue37.jpg	-16	1	Target37.jpg	-16
2022-07-09	14:01:15	1	4	1	6.5.2	16	3	PracticeItems_Think	valence	0	5	0	0	44	0	4375	1	I found these images to be...	-15	0	0	0	0	0	0
2022-07-09	14:01:15	1	4	1	6.5.2	16	4	PracticeItems_Think	expectancy	0	1500	0	0	50	0	2858	1	When you saw the <b>object-scene</b>,   to what <b>degree</b> did you expect the <b>unpleasant sound to occur</b>?	-9	0	0	0	0	0	0
2022-07-09	14:01:15	1	4	1	6.5.2	17	1	Reminder_Think_CSp	fixation	0	5	1500	0	0	1	1495	1	+	-10	0	0	0	0	0	0
2022-07-09	14:01:15	1	4	1	6.5.2	17	2	Reminder_Think_CSp	Think_CSp	0	5	0	0	0	0	4000	1	+	-16	3	Cue11.jpg	-16	3	Target11.jpg	-16
2022-07-09	14:01:15	1	4	1	6.5.2	17	3	Reminder_Think_CSp	valence	0	5	0	0	50	0	1391	1	I found these images to be...	-16	0	0	0	0	0	0
2022-07-09	14:01:15	1	4	1	6.5.2	17	4	Reminder_Think_CSp	expectancy	0	1000	0	0	83	0	1996	1	When you saw the <b>object-scene</b>,   to what <b>degree</b> did you expect the <b>unpleasant sound to occur</b>?	-5	0	0	0	0	0	0
2022-07-09	14:01:15	1	4	1	6.5.2	18	1	Reminder_Baseline_CSm	fixation	0	5	500	0	0	1	495	1	+	-10	0	0	0	0	0	0
2022-07-09	14:01:15	1	4	1	6.5.2	18	2	Reminder_Baseline_CSm	Baseline_CSm	0	5	0	0	0	0	4000	1	+	-16	3	Cue10.jpg	-16	3	Target10.jpg	-16
2022-07-09	14:01:15	1	4	1	6.5.2	18	3	Reminder_Baseline_CSm	valence	0	5	0	0	42	0	3358	1	I found these images to be...	-15	0	0	0	0	0	0
2022-07-09	14:01:15	1	4	1	6.5.2	18	4	Reminder_Baseline_CSm	expectancy	0	500	0	0	1	0	4034	1	When you saw the <b>object-scene</b>,   to what <b>degree</b> did you expect the <b>unpleasant sound to occur</b>?	-9	0	0	0	0	0	0
2022-07-09	14:01:15	1	4	1	6.5.2	19	1	Reminder_Think_CSm	fixation	0	5	1500	0	0	1	1495	1	+	-7	0	0	0	0	0	0
2022-07-09	14:01:15	1	4	1	6.5.2	19	2	Reminder_Think_CSm	Think_CSm	0	5	0	0	0	0	4000	1	+	-13	6	Cue9.jpg	-13	6	Target9.jpg	-13
2022-07-09	14:01:15	1	4	1	6.5.2	19	3	Reminder_Think_CSm	valence	0	5	0	0	45	0	2182	1	I found these images to be...	-15	0	0	0	0	0	0
2022-07-09	14:01:15	1	4	1	6.5.2	19	4	Reminder_Think_CSm	expectancy	0	1500	0	0	23	0	2673	1	When you saw the <b>object-scene</b>,   to what <b>degree</b> did you expect the <b>unpleasant sound to occur</b>?	-9	0	0	0	0	0	0
2022-07-09	14:01:15	1	4	1	6.5.2	20	1	Reminder_NoThink_CSm	fixation	0	5	500	0	0	1	495	1	+	-10	0	0	0	0	0	0
2022-07-09	14:01:15	1	4	1	6.5.2	20	2	Reminder_NoThink_CSm	NoThink_CSm	0	5	0	0	0	0	4000	1	+	-16	4	Cue24.jpg	-16	4	Target24.jpg	-16
2022-07-09	14:01:15	1	4	1	6.5.2	20	3	Reminder_NoThink_CSm	valence	0	5	0	0	7	0	4402	1	I found these images to be...	-15	0	0	0	0	0	0
2022-07-09	14:01:15	1	4	1	6.5.2	20	4	Reminder_NoThink_CSm	expectancy	0	1000	0	0	14	0	2614	1	When you saw the <b>object-scene</b>,   to what <b>degree</b> did you expect the <b>unpleasant sound to occur</b>?	-6	0	0	0	0	0	0
2022-07-09	14:01:15	1	4	1	6.5.2	21	1	PracticeItems_NoThink	fixation	0	5	1000	0	0	1	995	1	+	-10	0	0	0	0	0	0
2022-07-09	14:01:15	1	4	1	6.5.2	21	2	PracticeItems_NoThink	PracticeItems_NoThink	0	5	0	0	0	0	4000	1	+	-16	1	Cue39.jpg	-16	1	Target39.jpg	-16
2022-07-09	14:01:15	1	4	1	6.5.2	21	3	PracticeItems_NoThink	valence	0	5	0	0	30	0	2345	1	I found these images to be...	-16	0	0	0	0	0	0
2022-07-09	14:01:15	1	4	1	6.5.2	21	4	PracticeItems_NoThink	expectancy	0	500	0	0	50	0	674	1	When you saw the <b>object-scene</b>,   to what <b>degree</b> did you expect the <b>unpleasant sound to occur</b>?	-9	0	0	0	0	0	0
2022-07-09	14:01:15	1	4	1	6.5.2	22	1	Reminder_Objects_CSp	fixation	0	5	1500	0	0	1	1495	1	+	-11	0	0	0	0	0	0
2022-07-09	14:01:15	1	4	1	6.5.2	22	2	Reminder_Objects_CSp	Objects_CSp	0	5	0	0	0	0	4000	2	Object1.jpg	-16	0	0	0	0	0	0
2022-07-09	14:01:15	1	4	1	6.5.2	22	3	Reminder_Objects_CSp	expectancy_object	0	1000	0	0	39	0	1946	1	When you saw the <b>object</b>,   to what <b>degree</b> did you expect the <b>unpleasant sound to occur</b>?	-15	0	0	0	0	0	0
2022-07-09	14:01:15	1	4	1	6.5.2	23	1	Reminder_Baseline_CSm	fixation	0	5	500	0	0	1	495	1	+	-10	0	0	0	0	0	0
2022-07-09	14:01:15	1	4	1	6.5.2	23	2	Reminder_Baseline_CSm	Baseline_CSm	0	5	0	0	0	0	4000	1	+	-16	4	Cue33.jpg	-16	4	Target33.jpg	-16
2022-07-09	14:01:15	1	4	1	6.5.2	23	3	Reminder_Baseline_CSm	valence	0	5	0	0	24	0	2651	1	I found these images to be...	-16	0	0	0	0	0	0
2022-07-09	14:01:15	1	4	1	6.5.2	23	4	Reminder_Baseline_CSm	expectancy	0	1500	0	0	25	0	1656	1	When you saw the <b>object-scene</b>,   to what <b>degree</b> did you expect the <b>unpleasant sound to occur</b>?	-9	0	0	0	0	0	0
2022-07-09	14:01:15	1	4	1	6.5.2	24	1	Reminder_Baseline_CSp	fixation	0	5	1000	0	0	1	995	1	+	-10	0	0	0	0	0	0
2022-07-09	14:01:15	1	4	1	6.5.2	24	2	Reminder_Baseline_CSp	Baseline_CSp	0	5	0	0	0	0	4000	1	+	-16	3	Cue16.jpg	-16	3	Target16.jpg	-16
2022-07-09	14:01:15	1	4	1	6.5.2	24	3	Reminder_Baseline_CSp	valence	0	5	0	0	15	0	2990	1	I found these images to be...	-15	0	0	0	0	0	0
2022-07-09	14:01:15	1	4	1	6.5.2	24	4	Reminder_Baseline_CSp	expectancy	0	1000	0	0	81	0	2519	1	When you saw the <b>object-scene</b>,   to what <b>degree</b> did you expect the <b>unpleasant sound to occur</b>?	-6	0	0	0	0	0	0
2022-07-09	14:01:15	1	4	1	6.5.2	25	1	Reminder_Objects_CSp	fixation	0	5	500	0	0	1	495	1	+	-11	0	0	0	0	0	0
2022-07-09	14:01:15	1	4	1	6.5.2	25	2	Reminder_Objects_CSp	Objects_CSp	0	5	0	0	0	0	4000	1	Object8.jpg	-16	0	0	0	0	0	0
2022-07-09	14:01:15	1	4	1	6.5.2	25	3	Reminder_Objects_CSp	expectancy_object	0	500	0	0	59	0	2052	1	When you saw the <b>object</b>,   to what <b>degree</b> did you expect the <b>unpleasant sound to occur</b>?	-16	0	0	0	0	0	0
2022-07-09	14:01:15	1	4	1	6.5.2	26	1	Reminder_Think_CSm	fixation	0	5	1500	0	0	1	1495	1	+	-11	0	0	0	0	0	0
2022-07-09	14:01:15	1	4	1	6.5.2	26	2	Reminder_Think_CSm	Think_CSm	0	5	0	0	0	0	4000	1	+	-16	4	Cue3.jpg	-16	4	Target3.jpg	-16
2022-07-09	14:01:15	1	4	1	6.5.2	26	3	Reminder_Think_CSm	valence	0	5	0	0	28	0	3507	1	I found these images to be...	-16	0	0	0	0	0	0
2022-07-09	14:01:15	1	4	1	6.5.2	26	4	Reminder_Think_CSm	expectancy	0	500	0	0	50	0	632	1	When you saw the <b>object-scene</b>,   to what <b>degree</b> did you expect the <b>unpleasant sound to occur</b>?	-5	0	0	0	0	0	0
2022-07-09	14:01:15	1	4	1	6.5.2	27	1	Reminder_Baseline_CSm	fixation	0	5	1000	0	0	1	995	1	+	-10	0	0	0	0	0	0
2022-07-09	14:01:15	1	4	1	6.5.2	27	2	Reminder_Baseline_CSm	Baseline_CSm	0	5	0	0	0	0	4000	1	+	-12	2	Cue15.jpg	-12	2	Target15.jpg	-12
2022-07-09	14:01:15	1	4	1	6.5.2	27	3	Reminder_Baseline_CSm	valence	0	5	0	0	40	0	2110	1	I found these images to be...	-15	0	0	0	0	0	0
2022-07-09	14:01:15	1	4	1	6.5.2	27	4	Reminder_Baseline_CSm	expectancy	0	500	0	0	20	0	3079	1	When you saw the <b>object-scene</b>,   to what <b>degree</b> did you expect the <b>unpleasant sound to occur</b>?	-9	0	0	0	0	0	0
2022-07-09	14:01:15	1	4	1	6.5.2	28	1	Reminder_Baseline_CSp	fixation	0	5	1500	0	0	1	1495	1	+	-11	0	0	0	0	0	0
2022-07-09	14:01:15	1	4	1	6.5.2	28	2	Reminder_Baseline_CSp	Baseline_CSp	0	5	0	0	0	0	4000	1	+	-16	5	Cue2.jpg	-16	5	Target2.jpg	-16
2022-07-09	14:01:15	1	4	1	6.5.2	28	3	Reminder_Baseline_CSp	valence	0	5	0	0	6	0	4663	1	I found these images to be...	-15	0	0	0	0	0	0
2022-07-09	14:01:15	1	4	1	6.5.2	28	4	Reminder_Baseline_CSp	expectancy	0	1000	0	0	50	0	661	1	When you saw the <b>object-scene</b>,   to what <b>degree</b> did you expect the <b>unpleasant sound to occur</b>?	-9	0	0	0	0	0	0
2022-07-09	14:01:15	1	4	1	6.5.2	29	1	Reminder_Think_CSm	fixation	0	5	500	0	0	1	495	1	+	-10	0	0	0	0	0	0
2022-07-09	14:01:15	1	4	1	6.5.2	29	2	Reminder_Think_CSm	Think_CSm	0	5	0	0	0	0	4000	1	+	-16	2	Cue6.jpg	-16	2	Target6.jpg	-16
2022-07-09	14:01:15	1	4	1	6.5.2	29	3	Reminder_Think_CSm	valence	0	5	0	0	8	0	5331	1	I found these images to be...	-15	0	0	0	0	0	0
2022-07-09	14:01:15	1	4	1	6.5.2	29	4	Reminder_Think_CSm	expectancy	0	1500	0	0	59	0	2216	1	When you saw the <b>object-scene</b>,   to what <b>degree</b> did you expect the <b>unpleasant sound to occur</b>?	-9	0	0	0	0	0	0
2022-07-09	14:01:15	1	4	1	6.5.2	30	1	Reminder_Baseline_CSm	fixation	0	5	1000	0	0	1	995	1	+	-10	0	0	0	0	0	0
2022-07-09	14:01:15	1	4	1	6.5.2	30	2	Reminder_Baseline_CSm	Baseline_CSm	0	5	0	0	0	0	4000	1	+	-16	1	Cue20.jpg	-16	1	Target20.jpg	-16
2022-07-09	14:01:15	1	4	1	6.5.2	30	3	Reminder_Baseline_CSm	valence	0	5	0	0	30	0	3196	1	I found these images to be...	-16	0	0	0	0	0	0
2022-07-09	14:01:15	1	4	1	6.5.2	30	4	Reminder_Baseline_CSm	expectancy	0	1500	0	0	34	0	2152	1	When you saw the <b>object-scene</b>,   to what <b>degree</b> did you expect the <b>unpleasant sound to occur</b>?	-8	0	0	0	0	0	0
2022-07-09	14:01:15	1	4	1	6.5.2	31	1	PracticeItems_Think	fixation	0	5	1000	0	0	1	995	1	+	-11	0	0	0	0	0	0
2022-07-09	14:01:15	1	4	1	6.5.2	31	2	PracticeItems_Think	PracticeItems_Think	0	5	0	0	0	0	4000	1	+	-16	2	Cue38.jpg	-16	2	Target38.jpg	-16
2022-07-09	14:01:15	1	4	1	6.5.2	31	3	PracticeItems_Think	valence	0	5	0	0	50	0	1293	1	I found these images to be...	-16	0	0	0	0	0	0
2022-07-09	14:01:15	1	4	1	6.5.2	31	4	PracticeItems_Think	expectancy	0	500	0	0	50	0	616	1	When you saw the <b>object-scene</b>,   to what <b>degree</b> did you expect the <b>unpleasant sound to occur</b>?	-6	0	0	0	0	0	0
2022-07-09	14:01:15	1	4	1	6.5.2	32	1	Reminder_Objects_CSp	fixation	0	5	500	0	0	1	495	1	+	-10	0	0	0	0	0	0
2022-07-09	14:01:15	1	4	1	6.5.2	32	2	Reminder_Objects_CSp	Objects_CSp	0	5	0	0	0	0	4000	4	Object6.jpg	-16	0	0	0	0	0	0
2022-07-09	14:01:15	1	4	1	6.5.2	32	3	Reminder_Objects_CSp	expectancy_object	0	1500	0	0	39	0	2544	1	When you saw the <b>object</b>,   to what <b>degree</b> did you expect the <b>unpleasant sound to occur</b>?	-16	0	0	0	0	0	0
2022-07-09	14:01:15	1	4	1	6.5.2	33	1	Reminder_NoThink_CSm	fixation	0	5	1500	0	0	1	1495	1	+	-10	0	0	0	0	0	0
2022-07-09	14:01:15	1	4	1	6.5.2	33	2	Reminder_NoThink_CSm	NoThink_CSm	0	5	0	0	0	0	4000	1	+	-16	2	Cue22.jpg	-16	2	Target22.jpg	-16
2022-07-09	14:01:15	1	4	1	6.5.2	33	3	Reminder_NoThink_CSm	valence	0	5	0	0	36	0	2874	1	I found these images to be...	-16	0	0	0	0	0	0
2022-07-09	14:01:15	1	4	1	6.5.2	33	4	Reminder_NoThink_CSm	expectancy	0	1000	0	0	64	0	3038	1	When you saw the <b>object-scene</b>,   to what <b>degree</b> did you expect the <b>unpleasant sound to occur</b>?	-9	0	0	0	0	0	0
2022-07-09	14:01:15	1	4	1	6.5.2	34	1	Reminder_Think_CSm	fixation	0	5	500	0	0	1	495	1	+	-10	0	0	0	0	0	0
2022-07-09	14:01:15	1	4	1	6.5.2	34	2	Reminder_Think_CSm	Think_CSm	0	5	0	0	0	0	4000	1	+	-12	1	Cue32.jpg	-12	1	Target32.jpg	-12
2022-07-09	14:01:15	1	4	1	6.5.2	34	3	Reminder_Think_CSm	valence	0	5	0	0	22	0	3112	1	I found these images to be...	-16	0	0	0	0	0	0
2022-07-09	14:01:15	1	4	1	6.5.2	34	4	Reminder_Think_CSm	expectancy	0	1500	0	0	10	0	2225	1	When you saw the <b>object-scene</b>,   to what <b>degree</b> did you expect the <b>unpleasant sound to occur</b>?	-8	0	0	0	0	0	0
2022-07-09	14:01:15	1	4	1	6.5.2	35	1	Reminder_Objects_CSm	fixation	0	5	1000	0	0	1	995	1	+	-10	0	0	0	0	0	0
2022-07-09	14:01:15	1	4	1	6.5.2	35	2	Reminder_Objects_CSm	Objects_CSm	0	5	0	0	0	0	4000	3	Object7.jpg	-16	0	0	0	0	0	0
2022-07-09	14:01:15	1	4	1	6.5.2	35	3	Reminder_Objects_CSm	expectancy_object	0	1000	0	0	50	0	916	1	When you saw the <b>object</b>,   to what <b>degree</b> did you expect the <b>unpleasant sound to occur</b>?	-15	0	0	0	0	0	0
2022-07-09	14:01:15	1	4	1	6.5.2	36	1	Reminder_Think_CSm	fixation	0	5	1500	0	0	1	1495	1	+	-10	0	0	0	0	0	0
2022-07-09	14:01:15	1	4	1	6.5.2	36	2	Reminder_Think_CSm	Think_CSm	0	5	0	0	0	0	4000	1	+	-16	3	Cue14.jpg	-16	3	Target14.jpg	-16
2022-07-09	14:01:15	1	4	1	6.5.2	36	3	Reminder_Think_CSm	valence	0	5	0	0	34	0	4085	1	I found these images to be...	-16	0	0	0	0	0	0
2022-07-09	14:01:15	1	4	1	6.5.2	36	4	Reminder_Think_CSm	expectancy	0	1000	0	0	27	0	3255	1	When you saw the <b>object-scene</b>,   to what <b>degree</b> did you expect the <b>unpleasant sound to occur</b>?	-9	0	0	0	0	0	0
2022-07-09	14:01:15	1	4	1	6.5.2	37	1	Reminder_Baseline_CSm	fixation	0	5	500	0	0	1	495	1	+	-10	0	0	0	0	0	0
2022-07-09	14:01:15	1	4	1	6.5.2	37	2	Reminder_Baseline_CSm	Baseline_CSm	0	5	0	0	0	0	4000	1	+	-11	6	Cue8.jpg	-11	6	Target8.jpg	-11
2022-07-09	14:01:15	1	4	1	6.5.2	37	3	Reminder_Baseline_CSm	valence	0	5	0	0	33	0	1780	1	I found these images to be...	-15	0	0	0	0	0	0
2022-07-09	14:01:15	1	4	1	6.5.2	37	4	Reminder_Baseline_CSm	expectancy	0	500	0	0	18	0	1798	1	When you saw the <b>object-scene</b>,   to what <b>degree</b> did you expect the <b>unpleasant sound to occur</b>?	-5	0	0	0	0	0	0
2022-07-09	14:01:15	1	4	1	6.5.2	38	1	Reminder_Think_CSp	fixation	0	5	1500	0	0	1	1495	1	+	-10	0	0	0	0	0	0
2022-07-09	14:01:15	1	4	1	6.5.2	38	2	Reminder_Think_CSp	Think_CSp	0	5	0	0	0	0	4000	1	+	-16	1	Cue26.jpg	-16	1	Target26.jpg	-16
2022-07-09	14:01:15	1	4	1	6.5.2	38	3	Reminder_Think_CSp	valence	0	5	0	0	17	0	2854	1	I found these images to be...	-15	0	0	0	0	0	0
2022-07-09	14:01:15	1	4	1	6.5.2	38	4	Reminder_Think_CSp	expectancy	0	1500	0	0	85	0	1617	1	When you saw the <b>object-scene</b>,   to what <b>degree</b> did you expect the <b>unpleasant sound to occur</b>?	-9	0	0	0	0	0	0
2022-07-09	14:01:15	1	4	1	6.5.2	39	1	Reminder_Baseline_CSp	fixation	0	5	1000	0	0	1	995	1	+	-10	0	0	0	0	0	0
2022-07-09	14:01:15	1	4	1	6.5.2	39	2	Reminder_Baseline_CSp	Baseline_CSp	0	5	0	0	0	0	4000	1	+	-12	4	Cue25.jpg	-12	4	Target25.jpg	-12
2022-07-09	14:01:15	1	4	1	6.5.2	39	3	Reminder_Baseline_CSp	valence	0	5	0	0	24	0	2695	1	I found these images to be...	-15	0	0	0	0	0	0
2022-07-09	14:01:15	1	4	1	6.5.2	39	4	Reminder_Baseline_CSp	expectancy	0	1000	0	0	79	0	1491	1	When you saw the <b>object-scene</b>,   to what <b>degree</b> did you expect the <b>unpleasant sound to occur</b>?	-9	0	0	0	0	0	0
2022-07-09	14:01:15	1	4	1	6.5.2	40	1	Reminder_Think_CSm	fixation	0	5	1500	0	0	1	1495	1	+	-10	0	0	0	0	0	0
2022-07-09	14:01:15	1	4	1	6.5.2	40	2	Reminder_Think_CSm	Think_CSm	0	5	0	0	0	0	4000	1	+	-16	5	Cue5.jpg	-16	5	Target5.jpg	-16
2022-07-09	14:01:15	1	4	1	6.5.2	40	3	Reminder_Think_CSm	valence	0	5	0	0	50	0	889	1	I found these images to be...	-16	0	0	0	0	0	0
2022-07-09	14:01:15	1	4	1	6.5.2	40	4	Reminder_Think_CSm	expectancy	0	500	0	0	37	0	2413	1	When you saw the <b>object-scene</b>,   to what <b>degree</b> did you expect the <b>unpleasant sound to occur</b>?	-9	0	0	0	0	0	0
2022-07-09	14:01:15	1	4	1	6.5.2	41	1	Reminder_Baseline_CSp	fixation	0	5	500	0	0	1	495	1	+	-10	0	0	0	0	0	0
2022-07-09	14:01:15	1	4	1	6.5.2	41	2	Reminder_Baseline_CSp	Baseline_CSp	0	5	0	0	0	0	4000	1	+	-16	6	Cue27.jpg	-16	6	Target27.jpg	-16
2022-07-09	14:01:15	1	4	1	6.5.2	41	3	Reminder_Baseline_CSp	valence	0	5	0	0	35	0	2333	1	I found these images to be...	-16	0	0	0	0	0	0
2022-07-09	14:01:15	1	4	1	6.5.2	41	4	Reminder_Baseline_CSp	expectancy	0	1000	0	0	70	0	2160	1	When you saw the <b>object-scene</b>,   to what <b>degree</b> did you expect the <b>unpleasant sound to occur</b>?	-8	0	0	0	0	0	0
2022-07-09	14:01:15	1	4	1	6.5.2	42	1	Reminder_NoThink_CSm	fixation	0	5	1000	0	0	1	995	1	+	-9	0	0	0	0	0	0
2022-07-09	14:01:15	1	4	1	6.5.2	42	2	Reminder_NoThink_CSm	NoThink_CSm	0	5	0	0	0	0	4000	1	+	-11	6	Cue29.jpg	-11	6	Target29.jpg	-11
2022-07-09	14:01:15	1	4	1	6.5.2	42	3	Reminder_NoThink_CSm	valence	0	5	0	0	28	0	2804	1	I found these images to be...	-16	0	0	0	0	0	0
2022-07-09	14:01:15	1	4	1	6.5.2	42	4	Reminder_NoThink_CSm	expectancy	0	500	0	0	50	0	490	1	When you saw the <b>object-scene</b>,   to what <b>degree</b> did you expect the <b>unpleasant sound to occur</b>?	-9	0	0	0	0	0	0
2022-07-09	14:01:15	1	4	1	6.5.2	43	1	Reminder_Baseline_CSp	fixation	0	5	1000	0	0	1	995	1	+	-11	0	0	0	0	0	0
2022-07-09	14:01:15	1	4	1	6.5.2	43	2	Reminder_Baseline_CSp	Baseline_CSp	0	5	0	0	0	0	4000	1	+	-16	2	Cue23.jpg	-16	2	Target23.jpg	-16
2022-07-09	14:01:15	1	4	1	6.5.2	43	3	Reminder_Baseline_CSp	valence	0	5	0	0	50	0	6637	1	I found these images to be...	-16	0	0	0	0	0	0
2022-07-09	14:01:15	1	4	1	6.5.2	43	4	Reminder_Baseline_CSp	expectancy	0	1500	0	0	95	0	3936	1	When you saw the <b>object-scene</b>,   to what <b>degree</b> did you expect the <b>unpleasant sound to occur</b>?	-9	0	0	0	0	0	0
2022-07-09	14:01:15	1	4	1	6.5.2	44	1	Reminder_Think_CSp	fixation	0	5	1500	0	0	1	1495	1	+	-10	0	0	0	0	0	0
2022-07-09	14:01:15	1	4	1	6.5.2	44	2	Reminder_Think_CSp	Think_CSp	0	5	0	0	0	0	4000	1	+	-16	2	Cue35.jpg	-16	2	Target35.jpg	-16
2022-07-09	14:01:15	1	4	1	6.5.2	44	3	Reminder_Think_CSp	valence	0	5	0	0	42	0	2421	1	I found these images to be...	-16	0	0	0	0	0	0
2022-07-09	14:01:15	1	4	1	6.5.2	44	4	Reminder_Think_CSp	expectancy	0	1500	0	0	86	0	2102	1	When you saw the <b>object-scene</b>,   to what <b>degree</b> did you expect the <b>unpleasant sound to occur</b>?	-9	0	0	0	0	0	0
2022-07-09	14:01:15	1	4	1	6.5.2	45	1	Reminder_Objects_CSm	fixation	0	5	500	0	0	1	495	1	+	-10	0	0	0	0	0	0
2022-07-09	14:01:15	1	4	1	6.5.2	45	2	Reminder_Objects_CSm	Objects_CSm	0	5	0	0	0	0	4000	1	Object4.jpg	-16	0	0	0	0	0	0
2022-07-09	14:01:15	1	4	1	6.5.2	45	3	Reminder_Objects_CSm	expectancy_object	0	500	0	0	32	0	2017	1	When you saw the <b>object</b>,   to what <b>degree</b> did you expect the <b>unpleasant sound to occur</b>?	-15	0	0	0	0	0	0
2022-07-09	14:01:15	1	4	1	6.5.2	46	1	Reminder_NoThink_CSp	fixation	0	5	500	0	0	1	495	1	+	-11	0	0	0	0	0	0
2022-07-09	14:01:15	1	4	1	6.5.2	46	2	Reminder_NoThink_CSp	NoThink_CSp	0	5	0	0	0	0	4000	1	+	-16	3	Cue1.jpg	-16	3	Target1.jpg	-16
2022-07-09	14:01:15	1	4	1	6.5.2	46	3	Reminder_NoThink_CSp	valence	0	5	0	0	16	0	2903	1	I found these images to be...	-16	0	0	0	0	0	0
2022-07-09	14:01:15	1	4	1	6.5.2	46	4	Reminder_NoThink_CSp	expectancy	0	500	0	0	91	0	2579	1	When you saw the <b>object-scene</b>,   to what <b>degree</b> did you expect the <b>unpleasant sound to occur</b>?	-9	0	0	0	0	0	0
2022-07-09	14:01:15	1	4	1	6.5.2	47	1	Reminder_Baseline_CSp	fixation	0	5	1000	0	0	1	995	1	+	-10	0	0	0	0	0	0
2022-07-09	14:01:15	1	4	1	6.5.2	47	2	Reminder_Baseline_CSp	Baseline_CSp	0	5	0	0	0	0	4000	1	+	-16	1	Cue21.jpg	-16	1	Target21.jpg	-16
2022-07-09	14:01:15	1	4	1	6.5.2	47	3	Reminder_Baseline_CSp	valence	0	5	0	0	40	0	3009	1	I found these images to be...	-15	0	0	0	0	0	0
2022-07-09	14:01:15	1	4	1	6.5.2	47	4	Reminder_Baseline_CSp	expectancy	0	1000	0	0	66	0	1687	1	When you saw the <b>object-scene</b>,   to what <b>degree</b> did you expect the <b>unpleasant sound to occur</b>?	-9	0	0	0	0	0	0
2022-07-09	14:01:15	1	4	1	6.5.2	48	1	Reminder_NoThink_CSp	fixation	0	5	1500	0	0	1	1495	1	+	-11	0	0	0	0	0	0
2022-07-09	14:01:15	1	4	1	6.5.2	48	2	Reminder_NoThink_CSp	NoThink_CSp	0	5	0	0	0	0	4000	1	+	-16	4	Cue28.jpg	-16	4	Target28.jpg	-16
2022-07-09	14:01:15	1	4	1	6.5.2	48	3	Reminder_NoThink_CSp	valence	0	5	0	0	41	0	4008	1	I found these images to be...	-16	0	0	0	0	0	0
2022-07-09	14:01:15	1	4	1	6.5.2	48	4	Reminder_NoThink_CSp	expectancy	0	1000	0	0	74	0	1867	1	When you saw the <b>object-scene</b>,   to what <b>degree</b> did you expect the <b>unpleasant sound to occur</b>?	-9	0	0	0	0	0	0
2022-07-09	14:01:15	1	4	1	6.5.2	1	1	Practice_NoThink	fixation	0	5	1000	0	0	1	995	1	+	-10	0	0	0	0	0	0
2022-07-09	14:01:15	1	4	1	6.5.2	1	2	Practice_NoThink	NoThink	0	5	0	0	0	0	1000	1	DON'T THINK	-13	0	0	0	0	0	0
2022-07-09	14:01:15	1	4	1	6.5.2	1	3	Practice_NoThink	NoThinkCue	0	5	0	0	0	1	3000	1	Cue39.jpg	-16	0	0	0	0	0	0
2022-07-09	14:01:15	1	4	1	6.5.2	1	4	Practice_NoThink	Intrusion	0	1500	3000	0	0	0	1500	1	How <b>often</b> did you <b>think</b> about the <b>scene</b>?   <center><br><b>NEVER (1)    BRIEFLY (2)   OFTEN (3) </b>	-13	0	0	0	0	0	0
2022-07-09	14:01:15	1	4	1	6.5.2	2	1	Practice_NoThink	fixation	0	5	1500	0	0	1	1495	1	+	-10	0	0	0	0	0	0
2022-07-09	14:01:15	1	4	1	6.5.2	2	2	Practice_NoThink	NoThink	0	5	0	0	0	0	1000	1	DON'T THINK	-12	0	0	0	0	0	0
2022-07-09	14:01:15	1	4	1	6.5.2	2	3	Practice_NoThink	NoThinkCue	0	5	0	0	0	1	3000	2	Cue40.jpg	-16	0	0	0	0	0	0
2022-07-09	14:01:15	1	4	1	6.5.2	2	4	Practice_NoThink	Intrusion	0	1000	3000	0	3	1	831	1	How <b>often</b> did you <b>think</b> about the <b>scene</b>?   <center><br><b>NEVER (1)    BRIEFLY (2)   OFTEN (3) </b>	-16	0	0	0	0	0	0
2022-07-09	14:01:15	1	4	1	6.5.2	3	1	Practice_Think	fixation	0	5	500	0	0	1	495	1	+	-11	0	0	0	0	0	0
2022-07-09	14:01:15	1	4	1	6.5.2	3	2	Practice_Think	Think	0	5	0	0	0	0	1000	1	THINK	-10	0	0	0	0	0	0
2022-07-09	14:01:15	1	4	1	6.5.2	3	3	Practice_Think	ThinkCue	0	5	0	0	0	1	6000	1	Cue37.jpg	-16	0	0	0	0	0	0
2022-07-09	14:01:15	1	4	1	6.5.2	3	4	Practice_Think	Intrusion	0	500	3000	0	4	1	319	1	How <b>often</b> did you <b>think</b> about the <b>scene</b>?   <center><br><b>NEVER (1)    BRIEFLY (2)   OFTEN (3) </b>	-16	0	0	0	0	0	0
2022-07-09	14:01:15	1	4	1	6.5.2	4	1	Practice_Think	fixation	0	5	500	0	0	1	495	1	+	-10	0	0	0	0	0	0
2022-07-09	14:01:15	1	4	1	6.5.2	4	2	Practice_Think	Think	0	5	0	0	0	0	1000	1	THINK	-16	0	0	0	0	0	0
2022-07-09	14:01:15	1	4	1	6.5.2	4	3	Practice_Think	ThinkCue	0	5	0	0	0	1	6000	2	Cue38.jpg	-16	0	0	0	0	0	0
2022-07-09	14:01:15	1	4	1	6.5.2	4	4	Practice_Think	Intrusion	0	1000	3000	0	4	1	674	1	How <b>often</b> did you <b>think</b> about the <b>scene</b>?   <center><br><b>NEVER (1)    BRIEFLY (2)   OFTEN (3) </b>	-16	0	0	0	0	0	0
2022-07-09	14:01:15	1	4	1	6.5.2	5	1	Practice_Betweenblocks1	Practice_Betweenblocks1	0	5	0	0	57	1	1035	1	<center><br><br><br><br>This is the end of the first practice round. <br><br>There will be 2 more practice rounds.  <br><br> Please await further instruction from the experimenter.	-11	0	0	0	0	0	0
2022-07-09	14:01:15	1	4	1	6.5.2	6	1	Practice_NoThink	fixation	0	5	1500	0	0	1	1495	1	+	-10	0	0	0	0	0	0
2022-07-09	14:01:15	1	4	1	6.5.2	6	2	Practice_NoThink	NoThink	0	5	0	0	0	0	1000	1	DON'T THINK	-13	0	0	0	0	0	0
2022-07-09	14:01:15	1	4	1	6.5.2	6	3	Practice_NoThink	NoThinkCue	0	5	0	0	0	1	3000	1	Cue39.jpg	-16	0	0	0	0	0	0
2022-07-09	14:01:15	1	4	1	6.5.2	6	4	Practice_NoThink	Intrusion	0	1500	3000	0	2	1	618	1	How <b>often</b> did you <b>think</b> about the <b>scene</b>?   <center><br><b>NEVER (1)    BRIEFLY (2)   OFTEN (3) </b>	-16	0	0	0	0	0	0
2022-07-09	14:01:15	1	4	1	6.5.2	7	1	Practice_Think	fixation	0	5	1000	0	0	1	995	1	+	-10	0	0	0	0	0	0
2022-07-09	14:01:15	1	4	1	6.5.2	7	2	Practice_Think	Think	0	5	0	0	0	0	1000	1	THINK	-11	0	0	0	0	0	0
2022-07-09	14:01:15	1	4	1	6.5.2	7	3	Practice_Think	ThinkCue	0	5	0	0	0	1	6000	1	Cue37.jpg	-16	0	0	0	0	0	0
2022-07-09	14:01:15	1	4	1	6.5.2	7	4	Practice_Think	Intrusion	0	500	3000	0	4	1	588	1	How <b>often</b> did you <b>think</b> about the <b>scene</b>?   <center><br><b>NEVER (1)    BRIEFLY (2)   OFTEN (3) </b>	-16	0	0	0	0	0	0
2022-07-09	14:01:15	1	4	1	6.5.2	8	1	Practice_NoThink	fixation	0	5	500	0	0	1	495	1	+	-11	0	0	0	0	0	0
2022-07-09	14:01:15	1	4	1	6.5.2	8	2	Practice_NoThink	NoThink	0	5	0	0	0	0	1000	1	DON'T THINK	-16	0	0	0	0	0	0
2022-07-09	14:01:15	1	4	1	6.5.2	8	3	Practice_NoThink	NoThinkCue	0	5	0	0	0	1	3000	2	Cue40.jpg	-16	0	0	0	0	0	0
2022-07-09	14:01:15	1	4	1	6.5.2	8	4	Practice_NoThink	Intrusion	0	500	3000	0	2	1	651	1	How <b>often</b> did you <b>think</b> about the <b>scene</b>?   <center><br><b>NEVER (1)    BRIEFLY (2)   OFTEN (3) </b>	-16	0	0	0	0	0	0
2022-07-09	14:01:15	1	4	1	6.5.2	9	1	Practice_Think	fixation	0	5	1500	0	0	1	1495	1	+	-10	0	0	0	0	0	0
2022-07-09	14:01:15	1	4	1	6.5.2	9	2	Practice_Think	Think	0	5	0	0	0	0	1000	1	THINK	-11	0	0	0	0	0	0
2022-07-09	14:01:15	1	4	1	6.5.2	9	3	Practice_Think	ThinkCue	0	5	0	0	0	1	6000	2	Cue38.jpg	-16	0	0	0	0	0	0
2022-07-09	14:01:15	1	4	1	6.5.2	9	4	Practice_Think	Intrusion	0	1000	3000	0	4	1	496	1	How <b>often</b> did you <b>think</b> about the <b>scene</b>?   <center><br><b>NEVER (1)    BRIEFLY (2)   OFTEN (3) </b>	-16	0	0	0	0	0	0
2022-07-09	14:01:15	1	4	1	6.5.2	10	1	Practice_Betweenblocks2	Practice_Betweenblocks2	0	5	0	0	57	1	8381	1	<center><br><br><br><br>This is the end of the second practice round. <br><br>There will be 1 more practice round.  <br><br> Please await further instruction from the experimenter.	-10	0	0	0	0	0	0
2022-07-09	14:01:15	1	4	1	6.5.2	11	1	Practice_NoThink	fixation	0	5	1000	0	0	1	995	1	+	-11	0	0	0	0	0	0
2022-07-09	14:01:15	1	4	1	6.5.2	11	2	Practice_NoThink	NoThink	0	5	0	0	0	0	1000	1	DON'T THINK	-10	0	0	0	0	0	0
2022-07-09	14:01:15	1	4	1	6.5.2	11	3	Practice_NoThink	NoThinkCue	0	5	0	0	0	1	3000	1	Cue39.jpg	-16	0	0	0	0	0	0
2022-07-09	14:01:15	1	4	1	6.5.2	11	4	Practice_NoThink	Intrusion	0	1500	3000	0	2	1	520	1	How <b>often</b> did you <b>think</b> about the <b>scene</b>?   <center><br><b>NEVER (1)    BRIEFLY (2)   OFTEN (3) </b>	-16	0	0	0	0	0	0
2022-07-09	14:01:15	1	4	1	6.5.2	12	1	Practice_NoThink	fixation	0	5	1500	0	0	1	1495	1	+	-11	0	0	0	0	0	0
2022-07-09	14:01:15	1	4	1	6.5.2	12	2	Practice_NoThink	NoThink	0	5	0	0	0	0	1000	1	DON'T THINK	-11	0	0	0	0	0	0
2022-07-09	14:01:15	1	4	1	6.5.2	12	3	Practice_NoThink	NoThinkCue	0	5	0	0	0	1	3000	2	Cue40.jpg	-16	0	0	0	0	0	0
2022-07-09	14:01:15	1	4	1	6.5.2	12	4	Practice_NoThink	Intrusion	0	1500	3000	0	2	1	483	1	How <b>often</b> did you <b>think</b> about the <b>scene</b>?   <center><br><b>NEVER (1)    BRIEFLY (2)   OFTEN (3) </b>	-16	0	0	0	0	0	0
2022-07-09	14:01:15	1	4	1	6.5.2	13	1	Practice_Think	fixation	0	5	1000	0	0	1	995	1	+	-10	0	0	0	0	0	0
2022-07-09	14:01:15	1	4	1	6.5.2	13	2	Practice_Think	Think	0	5	0	0	0	0	1000	1	THINK	-11	0	0	0	0	0	0
2022-07-09	14:01:15	1	4	1	6.5.2	13	3	Practice_Think	ThinkCue	0	5	0	0	0	1	6000	1	Cue37.jpg	-16	0	0	0	0	0	0
2022-07-09	14:01:15	1	4	1	6.5.2	13	4	Practice_Think	Intrusion	0	1000	3000	0	4	1	743	1	How <b>often</b> did you <b>think</b> about the <b>scene</b>?   <center><br><b>NEVER (1)    BRIEFLY (2)   OFTEN (3) </b>	-16	0	0	0	0	0	0
2022-07-09	14:01:15	1	4	1	6.5.2	14	1	Practice_Think	fixation	0	5	500	0	0	1	495	1	+	-10	0	0	0	0	0	0
2022-07-09	14:01:15	1	4	1	6.5.2	14	2	Practice_Think	Think	0	5	0	0	0	0	1000	1	THINK	-16	0	0	0	0	0	0
2022-07-09	14:01:15	1	4	1	6.5.2	14	3	Practice_Think	ThinkCue	0	5	0	0	0	1	6000	2	Cue38.jpg	-16	0	0	0	0	0	0
2022-07-09	14:01:15	1	4	1	6.5.2	14	4	Practice_Think	Intrusion	0	500	3000	0	4	1	1402	1	How <b>often</b> did you <b>think</b> about the <b>scene</b>?   <center><br><b>NEVER (1)    BRIEFLY (2)   OFTEN (3) </b>	-16	0	0	0	0	0	0
2022-07-09	14:01:15	1	4	1	6.5.2	1	1	TNT_Object_CSm	fixation	0	5	1500	0	0	1	1495	1	+	-10	0	0	0	0	0	0
2022-07-09	14:01:15	1	4	1	6.5.2	1	2	TNT_Object_CSm	Passive	0	5	0	0	0	0	1000	1	VIEW	-16	0	0	0	0	0	0
2022-07-09	14:01:15	1	4	1	6.5.2	1	3	TNT_Object_CSm	TNT_Object_CSm	0	1500	0	0	0	0	3000	4	Object5.jpg	-16	0	0	0	0	0	0
2022-07-09	14:01:15	1	4	1	6.5.2	2	1	TNT_Object_CSm	fixation	0	5	500	0	0	1	495	1	+	-11	0	0	0	0	0	0
2022-07-09	14:01:15	1	4	1	6.5.2	2	2	TNT_Object_CSm	Passive	0	5	0	0	0	0	1000	1	VIEW	-16	0	0	0	0	0	0
2022-07-09	14:01:15	1	4	1	6.5.2	2	3	TNT_Object_CSm	TNT_Object_CSm	0	500	0	0	0	0	3000	1	Object4.jpg	-16	0	0	0	0	0	0
2022-07-09	14:01:15	1	4	1	6.5.2	3	1	TNT_Think_CSp	fixation	0	5	1000	0	0	1	995	1	+	-10	0	0	0	0	0	0
2022-07-09	14:01:15	1	4	1	6.5.2	3	2	TNT_Think_CSp	Think	0	5	0	0	0	0	1000	1	THINK	-16	0	0	0	0	0	0
2022-07-09	14:01:15	1	4	1	6.5.2	3	3	TNT_Think_CSp	TNT_Think_CSp	0	5	0	0	0	0	6000	1	Cue26.jpg	-16	0	0	0	0	0	0
2022-07-09	14:01:15	1	4	1	6.5.2	3	4	TNT_Think_CSp	Intrusion	0	1000	3000	0	4	1	772	1	How <b>often</b> did you <b>think</b> about the <b>scene</b>?   <center><br><b>NEVER (1)    BRIEFLY (2)   OFTEN (3) </b>	-16	0	0	0	0	0	0
2022-07-09	14:01:15	1	4	1	6.5.2	4	1	TNT_NoThink_CSm	fixation	0	5	1000	0	0	1	995	1	+	-7	0	0	0	0	0	0
2022-07-09	14:01:15	1	4	1	6.5.2	4	2	TNT_NoThink_CSm	NoThink	0	5	0	0	0	0	1000	1	DON'T THINK	-16	0	0	0	0	0	0
2022-07-09	14:01:15	1	4	1	6.5.2	4	3	TNT_NoThink_CSm	TNT_NoThink_CSm	0	5	0	0	0	0	3000	5	Cue13.jpg	-16	0	0	0	0	0	0
2022-07-09	14:01:15	1	4	1	6.5.2	4	4	TNT_NoThink_CSm	Intrusion	0	1500	3000	0	2	1	816	1	How <b>often</b> did you <b>think</b> about the <b>scene</b>?   <center><br><b>NEVER (1)    BRIEFLY (2)   OFTEN (3) </b>	-16	0	0	0	0	0	0
2022-07-09	14:01:15	1	4	1	6.5.2	5	1	TNT_Think_CSm	fixation	0	5	500	0	0	1	495	1	+	-11	0	0	0	0	0	0
2022-07-09	14:01:15	1	4	1	6.5.2	5	2	TNT_Think_CSm	Think	0	5	0	0	0	0	1000	1	THINK	-10	0	0	0	0	0	0
2022-07-09	14:01:15	1	4	1	6.5.2	5	3	TNT_Think_CSm	TNT_Think_CSm	0	5	0	0	0	0	6000	1	Cue32.jpg	-16	0	0	0	0	0	0
2022-07-09	14:01:15	1	4	1	6.5.2	5	4	TNT_Think_CSm	Intrusion	0	500	3000	0	4	1	605	1	How <b>often</b> did you <b>think</b> about the <b>scene</b>?   <center><br><b>NEVER (1)    BRIEFLY (2)   OFTEN (3) </b>	-16	0	0	0	0	0	0
2022-07-09	14:01:15	1	4	1	6.5.2	6	1	TNT_Think_CSm	fixation	0	5	1500	0	0	1	1495	1	+	-10	0	0	0	0	0	0
2022-07-09	14:01:15	1	4	1	6.5.2	6	2	TNT_Think_CSm	Think	0	5	0	0	0	0	1000	1	THINK	-16	0	0	0	0	0	0
2022-07-09	14:01:15	1	4	1	6.5.2	6	3	TNT_Think_CSm	TNT_Think_CSm	0	5	0	0	0	0	6000	2	Cue6.jpg	-16	0	0	0	0	0	0
2022-07-09	14:01:15	1	4	1	6.5.2	6	4	TNT_Think_CSm	Intrusion	0	500	3000	0	4	1	332	1	How <b>often</b> did you <b>think</b> about the <b>scene</b>?   <center><br><b>NEVER (1)    BRIEFLY (2)   OFTEN (3) </b>	-16	0	0	0	0	0	0
2022-07-09	14:01:15	1	4	1	6.5.2	7	1	TNT_NoThink_CSm	fixation	0	5	1500	0	0	1	1495	1	+	-10	0	0	0	0	0	0
2022-07-09	14:01:15	1	4	1	6.5.2	7	2	TNT_NoThink_CSm	NoThink	0	5	0	0	0	0	1000	1	DON'T THINK	-16	0	0	0	0	0	0
2022-07-09	14:01:15	1	4	1	6.5.2	7	3	TNT_NoThink_CSm	TNT_NoThink_CSm	0	5	0	0	0	0	3000	1	Cue36.jpg	-16	0	0	0	0	0	0
2022-07-09	14:01:15	1	4	1	6.5.2	7	4	TNT_NoThink_CSm	Intrusion	0	1000	3000	0	2	1	881	1	How <b>often</b> did you <b>think</b> about the <b>scene</b>?   <center><br><b>NEVER (1)    BRIEFLY (2)   OFTEN (3) </b>	-16	0	0	0	0	0	0
2022-07-09	14:01:15	1	4	1	6.5.2	8	1	TNT_Think_CSm	fixation	0	5	500	0	0	1	495	1	+	-10	0	0	0	0	0	0
2022-07-09	14:01:15	1	4	1	6.5.2	8	2	TNT_Think_CSm	Think	0	5	0	0	0	0	1000	1	THINK	-10	0	0	0	0	0	0
2022-07-09	14:01:15	1	4	1	6.5.2	8	3	TNT_Think_CSm	TNT_Think_CSm	0	5	0	0	0	0	6000	6	Cue9.jpg	-16	0	0	0	0	0	0
2022-07-09	14:01:15	1	4	1	6.5.2	8	4	TNT_Think_CSm	Intrusion	0	1500	3000	0	4	1	525	1	How <b>often</b> did you <b>think</b> about the <b>scene</b>?   <center><br><b>NEVER (1)    BRIEFLY (2)   OFTEN (3) </b>	-16	0	0	0	0	0	0
2022-07-09	14:01:15	1	4	1	6.5.2	9	1	TNT_Object_CSp	fixation	0	5	1000	0	0	1	995	1	+	-10	0	0	0	0	0	0
2022-07-09	14:01:15	1	4	1	6.5.2	9	2	TNT_Object_CSp	Passive	0	5	0	0	0	0	1000	1	VIEW	-16	0	0	0	0	0	0
2022-07-09	14:01:15	1	4	1	6.5.2	9	3	TNT_Object_CSp	TNT_Object_CSp	0	1500	0	0	0	0	3000	4	Object6.jpg	-16	0	0	0	0	0	0
2022-07-09	14:01:15	1	4	1	6.5.2	10	1	TNT_NoThink_CSm	fixation	0	5	1500	0	0	1	1495	1	+	-10	0	0	0	0	0	0
2022-07-09	14:01:15	1	4	1	6.5.2	10	2	TNT_NoThink_CSm	NoThink	0	5	0	0	0	0	1000	1	DON'T THINK	-16	0	0	0	0	0	0
2022-07-09	14:01:15	1	4	1	6.5.2	10	3	TNT_NoThink_CSm	TNT_NoThink_CSm	0	5	0	0	0	0	3000	6	Cue29.jpg	-16	0	0	0	0	0	0
2022-07-09	14:01:15	1	4	1	6.5.2	10	4	TNT_NoThink_CSm	Intrusion	0	1500	3000	0	2	1	1175	1	How <b>often</b> did you <b>think</b> about the <b>scene</b>?   <center><br><b>NEVER (1)    BRIEFLY (2)   OFTEN (3) </b>	-16	0	0	0	0	0	0
2022-07-09	14:01:15	1	4	1	6.5.2	11	1	TNT_NoThink_CSp	fixation	0	5	500	0	0	1	495	1	+	-11	0	0	0	0	0	0
2022-07-09	14:01:15	1	4	1	6.5.2	11	2	TNT_NoThink_CSp	NoThink	0	5	0	0	0	0	1000	1	DON'T THINK	-11	0	0	0	0	0	0
2022-07-09	14:01:15	1	4	1	6.5.2	11	3	TNT_NoThink_CSp	TNT_NoThink_CSp	0	5	0	0	0	0	3000	6	Cue12.jpg	-16	0	0	0	0	0	0
2022-07-09	14:01:15	1	4	1	6.5.2	11	4	TNT_NoThink_CSp	Intrusion	0	500	3000	0	2	1	771	1	How <b>often</b> did you <b>think</b> about the <b>scene</b>?   <center><br><b>NEVER (1)    BRIEFLY (2)   OFTEN (3) </b>	-16	0	0	0	0	0	0
2022-07-09	14:01:15	1	4	1	6.5.2	12	1	TNT_NoThink_CSm	fixation	0	5	1000	0	0	1	995	1	+	-11	0	0	0	0	0	0
2022-07-09	14:01:15	1	4	1	6.5.2	12	2	TNT_NoThink_CSm	NoThink	0	5	0	0	0	0	1000	1	DON'T THINK	-10	0	0	0	0	0	0
2022-07-09	14:01:15	1	4	1	6.5.2	12	3	TNT_NoThink_CSm	TNT_NoThink_CSm	0	5	0	0	0	0	3000	4	Cue24.jpg	-16	0	0	0	0	0	0
2022-07-09	14:01:15	1	4	1	6.5.2	12	4	TNT_NoThink_CSm	Intrusion	0	1000	3000	0	2	1	617	1	How <b>often</b> did you <b>think</b> about the <b>scene</b>?   <center><br><b>NEVER (1)    BRIEFLY (2)   OFTEN (3) </b>	-16	0	0	0	0	0	0
2022-07-09	14:01:15	1	4	1	6.5.2	13	1	TNT_NoThink_CSp	fixation	0	5	1500	0	0	1	1495	1	+	-10	0	0	0	0	0	0
2022-07-09	14:01:15	1	4	1	6.5.2	13	2	TNT_NoThink_CSp	NoThink	0	5	0	0	0	0	1000	1	DON'T THINK	-16	0	0	0	0	0	0
2022-07-09	14:01:15	1	4	1	6.5.2	13	3	TNT_NoThink_CSp	TNT_NoThink_CSp	0	5	0	0	0	0	3000	2	Cue30.jpg	-16	0	0	0	0	0	0
2022-07-09	14:01:15	1	4	1	6.5.2	13	4	TNT_NoThink_CSp	Intrusion	0	1000	3000	0	2	1	1061	1	How <b>often</b> did you <b>think</b> about the <b>scene</b>?   <center><br><b>NEVER (1)    BRIEFLY (2)   OFTEN (3) </b>	-16	0	0	0	0	0	0
2022-07-09	14:01:15	1	4	1	6.5.2	14	1	TNT_NoThink_CSp	fixation	0	5	1000	0	0	1	995	1	+	-10	0	0	0	0	0	0
2022-07-09	14:01:15	1	4	1	6.5.2	14	2	TNT_NoThink_CSp	NoThink	0	5	0	0	0	0	1000	1	DON'T THINK	-16	0	0	0	0	0	0
2022-07-09	14:01:15	1	4	1	6.5.2	14	3	TNT_NoThink_CSp	TNT_NoThink_CSp	0	5	0	0	0	0	3000	1	Cue17.jpg	-16	0	0	0	0	0	0
2022-07-09	14:01:15	1	4	1	6.5.2	14	4	TNT_NoThink_CSp	Intrusion	0	1500	3000	0	2	1	629	1	How <b>often</b> did you <b>think</b> about the <b>scene</b>?   <center><br><b>NEVER (1)    BRIEFLY (2)   OFTEN (3) </b>	-16	0	0	0	0	0	0
2022-07-09	14:01:15	1	4	1	6.5.2	15	1	TNT_Think_CSp	fixation	0	5	500	0	0	1	495	1	+	-10	0	0	0	0	0	0
2022-07-09	14:01:15	1	4	1	6.5.2	15	2	TNT_Think_CSp	Think	0	5	0	0	0	0	1000	1	THINK	-10	0	0	0	0	0	0
2022-07-09	14:01:15	1	4	1	6.5.2	15	3	TNT_Think_CSp	TNT_Think_CSp	0	5	0	0	0	0	6000	2	Cue35.jpg	-16	0	0	0	0	0	0
2022-07-09	14:01:15	1	4	1	6.5.2	15	4	TNT_Think_CSp	Intrusion	0	500	3000	0	4	1	697	1	How <b>often</b> did you <b>think</b> about the <b>scene</b>?   <center><br><b>NEVER (1)    BRIEFLY (2)   OFTEN (3) </b>	-16	0	0	0	0	0	0
2022-07-09	14:01:15	1	4	1	6.5.2	16	1	TNT_Think_CSm	fixation	0	5	500	0	0	1	495	1	+	-10	0	0	0	0	0	0
2022-07-09	14:01:15	1	4	1	6.5.2	16	2	TNT_Think_CSm	Think	0	5	0	0	0	0	1000	1	THINK	-16	0	0	0	0	0	0
2022-07-09	14:01:15	1	4	1	6.5.2	16	3	TNT_Think_CSm	TNT_Think_CSm	0	5	0	0	0	0	6000	4	Cue3.jpg	-16	0	0	0	0	0	0
2022-07-09	14:01:15	1	4	1	6.5.2	16	4	TNT_Think_CSm	Intrusion	0	1500	3000	0	4	1	645	1	How <b>often</b> did you <b>think</b> about the <b>scene</b>?   <center><br><b>NEVER (1)    BRIEFLY (2)   OFTEN (3) </b>	-16	0	0	0	0	0	0
2022-07-09	14:01:15	1	4	1	6.5.2	17	1	TNT_NoThink_CSp	fixation	0	5	1000	0	0	1	995	1	+	-11	0	0	0	0	0	0
2022-07-09	14:01:15	1	4	1	6.5.2	17	2	TNT_NoThink_CSp	NoThink	0	5	0	0	0	0	1000	1	DON'T THINK	-16	0	0	0	0	0	0
2022-07-09	14:01:15	1	4	1	6.5.2	17	3	TNT_NoThink_CSp	TNT_NoThink_CSp	0	5	0	0	0	0	3000	3	Cue1.jpg	-16	0	0	0	0	0	0
2022-07-09	14:01:15	1	4	1	6.5.2	17	4	TNT_NoThink_CSp	Intrusion	0	500	3000	0	2	1	701	1	How <b>often</b> did you <b>think</b> about the <b>scene</b>?   <center><br><b>NEVER (1)    BRIEFLY (2)   OFTEN (3) </b>	-16	0	0	0	0	0	0
2022-07-09	14:01:15	1	4	1	6.5.2	18	1	TNT_NoThink_CSm	fixation	0	5	1500	0	0	1	1495	1	+	-10	0	0	0	0	0	0
2022-07-09	14:01:15	1	4	1	6.5.2	18	2	TNT_NoThink_CSm	NoThink	0	5	0	0	0	0	1000	1	DON'T THINK	-11	0	0	0	0	0	0
2022-07-09	14:01:15	1	4	1	6.5.2	18	3	TNT_NoThink_CSm	TNT_NoThink_CSm	0	5	0	0	0	0	3000	2	Cue22.jpg	-16	0	0	0	0	0	0
2022-07-09	14:01:15	1	4	1	6.5.2	18	4	TNT_NoThink_CSm	Intrusion	0	1000	3000	0	2	1	772	1	How <b>often</b> did you <b>think</b> about the <b>scene</b>?   <center><br><b>NEVER (1)    BRIEFLY (2)   OFTEN (3) </b>	-16	0	0	0	0	0	0
2022-07-09	14:01:15	1	4	1	6.5.2	19	1	TNT_Object_CSm	fixation	0	5	1000	0	0	1	995	1	+	-10	0	0	0	0	0	0
2022-07-09	14:01:15	1	4	1	6.5.2	19	2	TNT_Object_CSm	Passive	0	5	0	0	0	0	1000	1	VIEW	-16	0	0	0	0	0	0
2022-07-09	14:01:15	1	4	1	6.5.2	19	3	TNT_Object_CSm	TNT_Object_CSm	0	1000	0	0	0	0	3000	3	Object7.jpg	-16	0	0	0	0	0	0
2022-07-09	14:01:15	1	4	1	6.5.2	20	1	TNT_NoThink_CSp	fixation	0	5	500	0	0	1	495	1	+	-10	0	0	0	0	0	0
2022-07-09	14:01:15	1	4	1	6.5.2	20	2	TNT_NoThink_CSp	NoThink	0	5	0	0	0	0	1000	1	DON'T THINK	-16	0	0	0	0	0	0
2022-07-09	14:01:15	1	4	1	6.5.2	20	3	TNT_NoThink_CSp	TNT_NoThink_CSp	0	5	0	0	0	0	3000	5	Cue19.jpg	-16	0	0	0	0	0	0
2022-07-09	14:01:15	1	4	1	6.5.2	20	4	TNT_NoThink_CSp	Intrusion	0	500	3000	0	2	1	650	1	How <b>often</b> did you <b>think</b> about the <b>scene</b>?   <center><br><b>NEVER (1)    BRIEFLY (2)   OFTEN (3) </b>	-16	0	0	0	0	0	0
2022-07-09	14:01:15	1	4	1	6.5.2	21	1	TNT_Think_CSm	fixation	0	5	1500	0	0	1	1495	1	+	-10	0	0	0	0	0	0
2022-07-09	14:01:15	1	4	1	6.5.2	21	2	TNT_Think_CSm	Think	0	5	0	0	0	0	1000	1	THINK	-16	0	0	0	0	0	0
2022-07-09	14:01:15	1	4	1	6.5.2	21	3	TNT_Think_CSm	TNT_Think_CSm	0	5	0	0	0	0	6000	5	Cue5.jpg	-16	0	0	0	0	0	0
2022-07-09	14:01:15	1	4	1	6.5.2	21	4	TNT_Think_CSm	Intrusion	0	1500	3000	0	4	1	818	1	How <b>often</b> did you <b>think</b> about the <b>scene</b>?   <center><br><b>NEVER (1)    BRIEFLY (2)   OFTEN (3) </b>	-16	0	0	0	0	0	0
2022-07-09	14:01:15	1	4	1	6.5.2	22	1	TNT_Object_CSp	fixation	0	5	1000	0	0	1	995	1	+	-11	0	0	0	0	0	0
2022-07-09	14:01:15	1	4	1	6.5.2	22	2	TNT_Object_CSp	Passive	0	5	0	0	0	0	1000	1	VIEW	-16	0	0	0	0	0	0
2022-07-09	14:01:15	1	4	1	6.5.2	22	3	TNT_Object_CSp	TNT_Object_CSp	0	1000	0	0	0	0	3000	1	Object8.jpg	-16	0	0	0	0	0	0
2022-07-09	14:01:15	1	4	1	6.5.2	23	1	TNT_Think_CSm	fixation	0	5	500	0	0	1	495	1	+	-11	0	0	0	0	0	0
2022-07-09	14:01:15	1	4	1	6.5.2	23	2	TNT_Think_CSm	Think	0	5	0	0	0	0	1000	1	THINK	-16	0	0	0	0	0	0
2022-07-09	14:01:15	1	4	1	6.5.2	23	3	TNT_Think_CSm	TNT_Think_CSm	0	5	0	0	0	0	6000	3	Cue14.jpg	-16	0	0	0	0	0	0
2022-07-09	14:01:15	1	4	1	6.5.2	23	4	TNT_Think_CSm	Intrusion	0	1000	3000	0	4	1	720	1	How <b>often</b> did you <b>think</b> about the <b>scene</b>?   <center><br><b>NEVER (1)    BRIEFLY (2)   OFTEN (3) </b>	-16	0	0	0	0	0	0
2022-07-09	14:01:15	1	4	1	6.5.2	24	1	TNT_Think_CSp	fixation	0	5	1500	0	0	1	1495	1	+	-11	0	0	0	0	0	0
2022-07-09	14:01:15	1	4	1	6.5.2	24	2	TNT_Think_CSp	Think	0	5	0	0	0	0	1000	1	THINK	-16	0	0	0	0	0	0
2022-07-09	14:01:15	1	4	1	6.5.2	24	3	TNT_Think_CSp	TNT_Think_CSp	0	5	0	0	0	0	6000	3	Cue11.jpg	-16	0	0	0	0	0	0
2022-07-09	14:01:15	1	4	1	6.5.2	24	4	TNT_Think_CSp	Intrusion	0	500	3000	0	4	1	1791	1	How <b>often</b> did you <b>think</b> about the <b>scene</b>?   <center><br><b>NEVER (1)    BRIEFLY (2)   OFTEN (3) </b>	-16	0	0	0	0	0	0
2022-07-09	14:01:15	1	4	1	6.5.2	25	1	TNT_Think_CSp	fixation	0	5	1000	0	0	1	995	1	+	-11	0	0	0	0	0	0
2022-07-09	14:01:15	1	4	1	6.5.2	25	2	TNT_Think_CSp	Think	0	5	0	0	0	0	1000	1	THINK	-16	0	0	0	0	0	0
2022-07-09	14:01:15	1	4	1	6.5.2	25	3	TNT_Think_CSp	TNT_Think_CSp	0	5	0	0	0	0	6000	4	Cue31.jpg	-16	0	0	0	0	0	0
2022-07-09	14:01:15	1	4	1	6.5.2	25	4	TNT_Think_CSp	Intrusion	0	1000	3000	0	4	1	1349	1	How <b>often</b> did you <b>think</b> about the <b>scene</b>?   <center><br><b>NEVER (1)    BRIEFLY (2)   OFTEN (3) </b>	-16	0	0	0	0	0	0
2022-07-09	14:01:15	1	4	1	6.5.2	26	1	TNT_NoThink_CSp	fixation	0	5	500	0	0	1	495	1	+	-11	0	0	0	0	0	0
2022-07-09	14:01:15	1	4	1	6.5.2	26	2	TNT_NoThink_CSp	NoThink	0	5	0	0	0	0	1000	1	DON'T THINK	-16	0	0	0	0	0	0
2022-07-09	14:01:15	1	4	1	6.5.2	26	3	TNT_NoThink_CSp	TNT_NoThink_CSp	0	5	0	0	0	0	3000	4	Cue28.jpg	-16	0	0	0	0	0	0
2022-07-09	14:01:15	1	4	1	6.5.2	26	4	TNT_NoThink_CSp	Intrusion	0	1500	3000	0	2	1	1279	1	How <b>often</b> did you <b>think</b> about the <b>scene</b>?   <center><br><b>NEVER (1)    BRIEFLY (2)   OFTEN (3) </b>	-16	0	0	0	0	0	0
2022-07-09	14:01:15	1	4	1	6.5.2	27	1	TNT_Object_CSp	fixation	0	5	1500	0	0	1	1495	1	+	-10	0	0	0	0	0	0
2022-07-09	14:01:15	1	4	1	6.5.2	27	2	TNT_Object_CSp	Passive	0	5	0	0	0	0	1000	1	VIEW	-11	0	0	0	0	0	0
2022-07-09	14:01:15	1	4	1	6.5.2	27	3	TNT_Object_CSp	TNT_Object_CSp	0	500	0	0	0	0	3000	3	Object2.jpg	-16	0	0	0	0	0	0
2022-07-09	14:01:15	1	4	1	6.5.2	28	1	TNT_Object_CSp	fixation	0	5	500	0	0	1	495	1	+	-11	0	0	0	0	0	0
2022-07-09	14:01:15	1	4	1	6.5.2	28	2	TNT_Object_CSp	Passive	0	5	0	0	0	0	1000	1	VIEW	-16	0	0	0	0	0	0
2022-07-09	14:01:15	1	4	1	6.5.2	28	3	TNT_Object_CSp	TNT_Object_CSp	0	1500	0	0	0	0	3000	2	Object1.jpg	-16	0	0	0	0	0	0
2022-07-09	14:01:15	1	4	1	6.5.2	29	1	TNT_Think_CSp	fixation	0	5	1500	0	0	1	1495	1	+	-11	0	0	0	0	0	0
2022-07-09	14:01:15	1	4	1	6.5.2	29	2	TNT_Think_CSp	Think	0	5	0	0	0	0	1000	1	THINK	-16	0	0	0	0	0	0
2022-07-09	14:01:15	1	4	1	6.5.2	29	3	TNT_Think_CSp	TNT_Think_CSp	0	5	0	0	0	0	6000	6	Cue4.jpg	-16	0	0	0	0	0	0
2022-07-09	14:01:15	1	4	1	6.5.2	29	4	TNT_Think_CSp	Intrusion	0	1000	3000	0	4	1	825	1	How <b>often</b> did you <b>think</b> about the <b>scene</b>?   <center><br><b>NEVER (1)    BRIEFLY (2)   OFTEN (3) </b>	-16	0	0	0	0	0	0
2022-07-09	14:01:15	1	4	1	6.5.2	30	1	TNT_NoThink_CSm	fixation	0	5	1000	0	0	1	995	1	+	-11	0	0	0	0	0	0
2022-07-09	14:01:15	1	4	1	6.5.2	30	2	TNT_NoThink_CSm	NoThink	0	5	0	0	0	0	1000	1	DON'T THINK	-16	0	0	0	0	0	0
2022-07-09	14:01:15	1	4	1	6.5.2	30	3	TNT_NoThink_CSm	TNT_NoThink_CSm	0	5	0	0	0	0	3000	3	Cue34.jpg	-16	0	0	0	0	0	0
2022-07-09	14:01:15	1	4	1	6.5.2	30	4	TNT_NoThink_CSm	Intrusion	0	500	3000	0	2	1	950	1	How <b>often</b> did you <b>think</b> about the <b>scene</b>?   <center><br><b>NEVER (1)    BRIEFLY (2)   OFTEN (3) </b>	-16	0	0	0	0	0	0
2022-07-09	14:01:15	1	4	1	6.5.2	31	1	TNT_Think_CSp	fixation	0	5	1500	0	0	1	1495	1	+	-10	0	0	0	0	0	0
2022-07-09	14:01:15	1	4	1	6.5.2	31	2	TNT_Think_CSp	Think	0	5	0	0	0	0	1000	1	THINK	-16	0	0	0	0	0	0
2022-07-09	14:01:15	1	4	1	6.5.2	31	3	TNT_Think_CSp	TNT_Think_CSp	0	5	0	0	0	0	6000	5	Cue7.jpg	-16	0	0	0	0	0	0
2022-07-09	14:01:15	1	4	1	6.5.2	31	4	TNT_Think_CSp	Intrusion	0	1500	3000	0	4	1	721	1	How <b>often</b> did you <b>think</b> about the <b>scene</b>?   <center><br><b>NEVER (1)    BRIEFLY (2)   OFTEN (3) </b>	-16	0	0	0	0	0	0
2022-07-09	14:01:15	1	4	1	6.5.2	32	1	TNT_Object_CSm	fixation	0	5	500	0	0	1	495	1	+	-10	0	0	0	0	0	0
2022-07-09	14:01:15	1	4	1	6.5.2	32	2	TNT_Object_CSm	Passive	0	5	0	0	0	0	1000	1	VIEW	-16	0	0	0	0	0	0
2022-07-09	14:01:15	1	4	1	6.5.2	32	3	TNT_Object_CSm	TNT_Object_CSm	0	500	0	0	0	0	3000	2	Object3.jpg	-16	0	0	0	0	0	0
2022-07-09	14:01:15	1	4	1	6.5.2	33	1	TNT_Object_CSm	fixation	0	5	1000	0	0	1	995	1	+	-10	0	0	0	0	0	0
2022-07-09	14:01:15	1	4	1	6.5.2	33	2	TNT_Object_CSm	Passive	0	5	0	0	0	0	1000	1	VIEW	-16	0	0	0	0	0	0
2022-07-09	14:01:15	1	4	1	6.5.2	33	3	TNT_Object_CSm	TNT_Object_CSm	0	1000	0	0	0	0	3000	1	Object4.jpg	-16	0	0	0	0	0	0
2022-07-09	14:01:15	1	4	1	6.5.2	34	1	TNT_Think_CSm	fixation	0	5	1500	0	0	1	1495	1	+	-10	0	0	0	0	0	0
2022-07-09	14:01:15	1	4	1	6.5.2	34	2	TNT_Think_CSm	Think	0	5	0	0	0	0	1000	1	THINK	-16	0	0	0	0	0	0
2022-07-09	14:01:15	1	4	1	6.5.2	34	3	TNT_Think_CSm	TNT_Think_CSm	0	5	0	0	0	0	6000	5	Cue5.jpg	-16	0	0	0	0	0	0
2022-07-09	14:01:15	1	4	1	6.5.2	34	4	TNT_Think_CSm	Intrusion	0	1000	3000	0	4	1	545	1	How <b>often</b> did you <b>think</b> about the <b>scene</b>?   <center><br><b>NEVER (1)    BRIEFLY (2)   OFTEN (3) </b>	-16	0	0	0	0	0	0
2022-07-09	14:01:15	1	4	1	6.5.2	35	1	TNT_NoThink_CSp	fixation	0	5	500	0	0	1	495	1	+	-11	0	0	0	0	0	0
2022-07-09	14:01:15	1	4	1	6.5.2	35	2	TNT_NoThink_CSp	NoThink	0	5	0	0	0	0	1000	1	DON'T THINK	-16	0	0	0	0	0	0
2022-07-09	14:01:15	1	4	1	6.5.2	35	3	TNT_NoThink_CSp	TNT_NoThink_CSp	0	5	0	0	0	0	3000	6	Cue12.jpg	-16	0	0	0	0	0	0
2022-07-09	14:01:15	1	4	1	6.5.2	35	4	TNT_NoThink_CSp	Intrusion	0	500	3000	0	2	1	708	1	How <b>often</b> did you <b>think</b> about the <b>scene</b>?   <center><br><b>NEVER (1)    BRIEFLY (2)   OFTEN (3) </b>	-16	0	0	0	0	0	0
2022-07-09	14:01:15	1	4	1	6.5.2	36	1	TNT_Object_CSp	fixation	0	5	1000	0	0	1	995	1	+	-11	0	0	0	0	0	0
2022-07-09	14:01:15	1	4	1	6.5.2	36	2	TNT_Object_CSp	Passive	0	5	0	0	0	0	1000	1	VIEW	-10	0	0	0	0	0	0
2022-07-09	14:01:15	1	4	1	6.5.2	36	3	TNT_Object_CSp	TNT_Object_CSp	0	500	0	0	0	0	3000	1	Object8.jpg	-16	0	0	0	0	0	0
2022-07-09	14:01:15	1	4	1	6.5.2	37	1	TNT_Think_CSp	fixation	0	5	1000	0	0	1	995	1	+	-10	0	0	0	0	0	0
2022-07-09	14:01:15	1	4	1	6.5.2	37	2	TNT_Think_CSp	Think	0	5	0	0	0	0	1000	1	THINK	-16	0	0	0	0	0	0
2022-07-09	14:01:15	1	4	1	6.5.2	37	3	TNT_Think_CSp	TNT_Think_CSp	0	5	0	0	0	0	6000	1	Cue26.jpg	-16	0	0	0	0	0	0
2022-07-09	14:01:15	1	4	1	6.5.2	37	4	TNT_Think_CSp	Intrusion	0	1500	3000	0	4	1	560	1	How <b>often</b> did you <b>think</b> about the <b>scene</b>?   <center><br><b>NEVER (1)    BRIEFLY (2)   OFTEN (3) </b>	-16	0	0	0	0	0	0
2022-07-09	14:01:15	1	4	1	6.5.2	38	1	TNT_Think_CSm	fixation	0	5	1500	0	0	1	1495	1	+	-11	0	0	0	0	0	0
2022-07-09	14:01:15	1	4	1	6.5.2	38	2	TNT_Think_CSm	Think	0	5	0	0	0	0	1000	1	THINK	-16	0	0	0	0	0	0
2022-07-09	14:01:15	1	4	1	6.5.2	38	3	TNT_Think_CSm	TNT_Think_CSm	0	5	0	0	0	0	6000	4	Cue3.jpg	-16	0	0	0	0	0	0
2022-07-09	14:01:15	1	4	1	6.5.2	38	4	TNT_Think_CSm	Intrusion	0	1500	3000	0	4	1	590	1	How <b>often</b> did you <b>think</b> about the <b>scene</b>?   <center><br><b>NEVER (1)    BRIEFLY (2)   OFTEN (3) </b>	-16	0	0	0	0	0	0
2022-07-09	14:01:15	1	4	1	6.5.2	39	1	TNT_Object_CSp	fixation	0	5	500	0	0	1	495	1	+	-11	0	0	0	0	0	0
2022-07-09	14:01:15	1	4	1	6.5.2	39	2	TNT_Object_CSp	Passive	0	5	0	0	0	0	1000	1	VIEW	-16	0	0	0	0	0	0
2022-07-09	14:01:15	1	4	1	6.5.2	39	3	TNT_Object_CSp	TNT_Object_CSp	0	1000	0	0	0	0	3000	2	Object1.jpg	-16	0	0	0	0	0	0
2022-07-09	14:01:15	1	4	1	6.5.2	40	1	TNT_Object_CSm	fixation	0	5	1500	0	0	1	1495	1	+	-10	0	0	0	0	0	0
2022-07-09	14:01:15	1	4	1	6.5.2	40	2	TNT_Object_CSm	Passive	0	5	0	0	0	0	1000	1	VIEW	-16	0	0	0	0	0	0
2022-07-09	14:01:15	1	4	1	6.5.2	40	3	TNT_Object_CSm	TNT_Object_CSm	0	1500	0	0	0	0	3000	3	Object7.jpg	-16	0	0	0	0	0	0
2022-07-09	14:01:15	1	4	1	6.5.2	41	1	TNT_Object_CSm	fixation	0	5	1000	0	0	1	995	1	+	-11	0	0	0	0	0	0
2022-07-09	14:01:15	1	4	1	6.5.2	41	2	TNT_Object_CSm	Passive	0	5	0	0	0	0	1000	1	VIEW	-16	0	0	0	0	0	0
2022-07-09	14:01:15	1	4	1	6.5.2	41	3	TNT_Object_CSm	TNT_Object_CSm	0	1000	0	0	0	0	3000	2	Object3.jpg	-16	0	0	0	0	0	0
2022-07-09	14:01:15	1	4	1	6.5.2	42	1	TNT_Think_CSp	fixation	0	5	500	0	0	1	495	1	+	-10	0	0	0	0	0	0
2022-07-09	14:01:15	1	4	1	6.5.2	42	2	TNT_Think_CSp	Think	0	5	0	0	0	0	1000	1	THINK	-16	0	0	0	0	0	0
2022-07-09	14:01:15	1	4	1	6.5.2	42	3	TNT_Think_CSp	TNT_Think_CSp	0	5	0	0	0	0	6000	3	Cue11.jpg	-16	0	0	0	0	0	0
2022-07-09	14:01:15	1	4	1	6.5.2	42	4	TNT_Think_CSp	Intrusion	0	500	3000	0	4	1	744	1	How <b>often</b> did you <b>think</b> about the <b>scene</b>?   <center><br><b>NEVER (1)    BRIEFLY (2)   OFTEN (3) </b>	-16	0	0	0	0	0	0
2022-07-09	14:01:15	1	4	1	6.5.2	43	1	TNT_NoThink_CSm	fixation	0	5	1500	0	0	1	1495	1	+	-11	0	0	0	0	0	0
2022-07-09	14:01:15	1	4	1	6.5.2	43	2	TNT_NoThink_CSm	NoThink	0	5	0	0	0	0	1000	1	DON'T THINK	-16	0	0	0	0	0	0
2022-07-09	14:01:15	1	4	1	6.5.2	43	3	TNT_NoThink_CSm	TNT_NoThink_CSm	0	5	0	0	0	0	3000	4	Cue24.jpg	-16	0	0	0	0	0	0
2022-07-09	14:01:15	1	4	1	6.5.2	43	4	TNT_NoThink_CSm	Intrusion	0	1000	3000	0	2	1	1503	1	How <b>often</b> did you <b>think</b> about the <b>scene</b>?   <center><br><b>NEVER (1)    BRIEFLY (2)   OFTEN (3) </b>	-16	0	0	0	0	0	0
2022-07-09	14:01:15	1	4	1	6.5.2	44	1	TNT_NoThink_CSp	fixation	0	5	1000	0	0	1	995	1	+	-10	0	0	0	0	0	0
2022-07-09	14:01:15	1	4	1	6.5.2	44	2	TNT_NoThink_CSp	NoThink	0	5	0	0	0	0	1000	1	DON'T THINK	-16	0	0	0	0	0	0
2022-07-09	14:01:15	1	4	1	6.5.2	44	3	TNT_NoThink_CSp	TNT_NoThink_CSp	0	5	0	0	0	0	3000	1	Cue17.jpg	-16	0	0	0	0	0	0
2022-07-09	14:01:15	1	4	1	6.5.2	44	4	TNT_NoThink_CSp	Intrusion	0	1000	3000	0	2	1	652	1	How <b>often</b> did you <b>think</b> about the <b>scene</b>?   <center><br><b>NEVER (1)    BRIEFLY (2)   OFTEN (3) </b>	-16	0	0	0	0	0	0
2022-07-09	14:01:15	1	4	1	6.5.2	45	1	TNT_NoThink_CSm	fixation	0	5	500	0	0	1	495	1	+	-10	0	0	0	0	0	0
2022-07-09	14:01:15	1	4	1	6.5.2	45	2	TNT_NoThink_CSm	NoThink	0	5	0	0	0	0	1000	1	DON'T THINK	-10	0	0	0	0	0	0
2022-07-09	14:01:15	1	4	1	6.5.2	45	3	TNT_NoThink_CSm	TNT_NoThink_CSm	0	5	0	0	0	0	3000	5	Cue13.jpg	-16	0	0	0	0	0	0
2022-07-09	14:01:15	1	4	1	6.5.2	45	4	TNT_NoThink_CSm	Intrusion	0	1500	3000	0	2	1	618	1	How <b>often</b> did you <b>think</b> about the <b>scene</b>?   <center><br><b>NEVER (1)    BRIEFLY (2)   OFTEN (3) </b>	-16	0	0	0	0	0	0
2022-07-09	14:01:15	1	4	1	6.5.2	46	1	TNT_NoThink_CSp	fixation	0	5	1000	0	0	1	995	1	+	-11	0	0	0	0	0	0
2022-07-09	14:01:15	1	4	1	6.5.2	46	2	TNT_NoThink_CSp	NoThink	0	5	0	0	0	0	1000	1	DON'T THINK	-16	0	0	0	0	0	0
2022-07-09	14:01:15	1	4	1	6.5.2	46	3	TNT_NoThink_CSp	TNT_NoThink_CSp	0	5	0	0	0	0	3000	3	Cue1.jpg	-16	0	0	0	0	0	0
2022-07-09	14:01:15	1	4	1	6.5.2	46	4	TNT_NoThink_CSp	Intrusion	0	500	3000	0	2	1	712	1	How <b>often</b> did you <b>think</b> about the <b>scene</b>?   <center><br><b>NEVER (1)    BRIEFLY (2)   OFTEN (3) </b>	-16	0	0	0	0	0	0
2022-07-09	14:01:15	1	4	1	6.5.2	47	1	TNT_Object_CSm	fixation	0	5	500	0	0	1	495	1	+	-10	0	0	0	0	0	0
2022-07-09	14:01:15	1	4	1	6.5.2	47	2	TNT_Object_CSm	Passive	0	5	0	0	0	0	1000	1	VIEW	-10	0	0	0	0	0	0
2022-07-09	14:01:15	1	4	1	6.5.2	47	3	TNT_Object_CSm	TNT_Object_CSm	0	500	0	0	0	0	3000	4	Object5.jpg	-16	0	0	0	0	0	0
2022-07-09	14:01:15	1	4	1	6.5.2	48	1	TNT_NoThink_CSm	fixation	0	5	1500	0	0	1	1495	1	+	-10	0	0	0	0	0	0
2022-07-09	14:01:15	1	4	1	6.5.2	48	2	TNT_NoThink_CSm	NoThink	0	5	0	0	0	0	1000	1	DON'T THINK	-16	0	0	0	0	0	0
2022-07-09	14:01:15	1	4	1	6.5.2	48	3	TNT_NoThink_CSm	TNT_NoThink_CSm	0	5	0	0	0	0	3000	6	Cue29.jpg	-16	0	0	0	0	0	0
2022-07-09	14:01:15	1	4	1	6.5.2	48	4	TNT_NoThink_CSm	Intrusion	0	1500	3000	0	2	1	1235	1	How <b>often</b> did you <b>think</b> about the <b>scene</b>?   <center><br><b>NEVER (1)    BRIEFLY (2)   OFTEN (3) </b>	-16	0	0	0	0	0	0
2022-07-09	14:01:15	1	4	1	6.5.2	49	1	TNT_NoThink_CSp	fixation	0	5	1000	0	0	1	995	1	+	-11	0	0	0	0	0	0
2022-07-09	14:01:15	1	4	1	6.5.2	49	2	TNT_NoThink_CSp	NoThink	0	5	0	0	0	0	1000	1	DON'T THINK	-10	0	0	0	0	0	0
2022-07-09	14:01:15	1	4	1	6.5.2	49	3	TNT_NoThink_CSp	TNT_NoThink_CSp	0	5	0	0	0	0	3000	4	Cue28.jpg	-16	0	0	0	0	0	0
2022-07-09	14:01:15	1	4	1	6.5.2	49	4	TNT_NoThink_CSp	Intrusion	0	1000	3000	0	2	1	699	1	How <b>often</b> did you <b>think</b> about the <b>scene</b>?   <center><br><b>NEVER (1)    BRIEFLY (2)   OFTEN (3) </b>	-16	0	0	0	0	0	0
2022-07-09	14:01:15	1	4	1	6.5.2	50	1	TNT_NoThink_CSp	fixation	0	5	1500	0	0	1	1495	1	+	-10	0	0	0	0	0	0
2022-07-09	14:01:15	1	4	1	6.5.2	50	2	TNT_NoThink_CSp	NoThink	0	5	0	0	0	0	1000	1	DON'T THINK	-16	0	0	0	0	0	0
2022-07-09	14:01:15	1	4	1	6.5.2	50	3	TNT_NoThink_CSp	TNT_NoThink_CSp	0	5	0	0	0	0	3000	2	Cue30.jpg	-16	0	0	0	0	0	0
2022-07-09	14:01:15	1	4	1	6.5.2	50	4	TNT_NoThink_CSp	Intrusion	0	500	3000	0	2	1	1328	1	How <b>often</b> did you <b>think</b> about the <b>scene</b>?   <center><br><b>NEVER (1)    BRIEFLY (2)   OFTEN (3) </b>	-16	0	0	0	0	0	0
2022-07-09	14:01:15	1	4	1	6.5.2	51	1	TNT_Object_CSp	fixation	0	5	500	0	0	1	495	1	+	-11	0	0	0	0	0	0
2022-07-09	14:01:15	1	4	1	6.5.2	51	2	TNT_Object_CSp	Passive	0	5	0	0	0	0	1000	1	VIEW	-10	0	0	0	0	0	0
2022-07-09	14:01:15	1	4	1	6.5.2	51	3	TNT_Object_CSp	TNT_Object_CSp	0	1500	0	0	0	0	3000	4	Object6.jpg	-16	0	0	0	0	0	0
2022-07-09	14:01:15	1	4	1	6.5.2	52	1	TNT_Think_CSp	fixation	0	5	500	0	0	1	495	1	+	-9	0	0	0	0	0	0
2022-07-09	14:01:15	1	4	1	6.5.2	52	2	TNT_Think_CSp	Think	0	5	0	0	0	0	1000	1	THINK	-16	0	0	0	0	0	0
2022-07-09	14:01:15	1	4	1	6.5.2	52	3	TNT_Think_CSp	TNT_Think_CSp	0	5	0	0	0	0	6000	6	Cue4.jpg	-16	0	0	0	0	0	0
2022-07-09	14:01:15	1	4	1	6.5.2	52	4	TNT_Think_CSp	Intrusion	0	1500	3000	0	4	1	841	1	How <b>often</b> did you <b>think</b> about the <b>scene</b>?   <center><br><b>NEVER (1)    BRIEFLY (2)   OFTEN (3) </b>	-16	0	0	0	0	0	0
2022-07-09	14:01:15	1	4	1	6.5.2	53	1	TNT_Think_CSm	fixation	0	5	1000	0	0	1	995	1	+	-11	0	0	0	0	0	0
2022-07-09	14:01:15	1	4	1	6.5.2	53	2	TNT_Think_CSm	Think	0	5	0	0	0	0	1000	1	THINK	-16	0	0	0	0	0	0
2022-07-09	14:01:15	1	4	1	6.5.2	53	3	TNT_Think_CSm	TNT_Think_CSm	0	5	0	0	0	0	6000	1	Cue32.jpg	-16	0	0	0	0	0	0
2022-07-09	14:01:15	1	4	1	6.5.2	53	4	TNT_Think_CSm	Intrusion	0	1000	3000	0	4	1	741	1	How <b>often</b> did you <b>think</b> about the <b>scene</b>?   <center><br><b>NEVER (1)    BRIEFLY (2)   OFTEN (3) </b>	-16	0	0	0	0	0	0
2022-07-09	14:01:15	1	4	1	6.5.2	54	1	TNT_NoThink_CSp	fixation	0	5	1500	0	0	1	1495	1	+	-10	0	0	0	0	0	0
2022-07-09	14:01:15	1	4	1	6.5.2	54	2	TNT_NoThink_CSp	NoThink	0	5	0	0	0	0	1000	1	DON'T THINK	-16	0	0	0	0	0	0
2022-07-09	14:01:15	1	4	1	6.5.2	54	3	TNT_NoThink_CSp	TNT_NoThink_CSp	0	5	0	0	0	0	3000	5	Cue19.jpg	-16	0	0	0	0	0	0
2022-07-09	14:01:15	1	4	1	6.5.2	54	4	TNT_NoThink_CSp	Intrusion	0	500	3000	0	2	1	2326	1	How <b>often</b> did you <b>think</b> about the <b>scene</b>?   <center><br><b>NEVER (1)    BRIEFLY (2)   OFTEN (3) </b>	-16	0	0	0	0	0	0
2022-07-09	14:01:15	1	4	1	6.5.2	55	1	TNT_Think_CSm	fixation	0	5	500	0	0	1	495	1	+	-10	0	0	0	0	0	0
2022-07-09	14:01:15	1	4	1	6.5.2	55	2	TNT_Think_CSm	Think	0	5	0	0	0	0	1000	1	THINK	-10	0	0	0	0	0	0
2022-07-09	14:01:15	1	4	1	6.5.2	55	3	TNT_Think_CSm	TNT_Think_CSm	0	5	0	0	0	0	6000	6	Cue9.jpg	-16	0	0	0	0	0	0
2022-07-09	14:01:15	1	4	1	6.5.2	55	4	TNT_Think_CSm	Intrusion	0	1500	3000	0	0	0	1500	1	How <b>often</b> did you <b>think</b> about the <b>scene</b>?   <center><br><b>NEVER (1)    BRIEFLY (2)   OFTEN (3) </b>	-16	0	0	0	0	0	0
2022-07-09	14:01:15	1	4	1	6.5.2	56	1	TNT_NoThink_CSm	fixation	0	5	1500	0	0	1	1495	1	+	-11	0	0	0	0	0	0
2022-07-09	14:01:15	1	4	1	6.5.2	56	2	TNT_NoThink_CSm	NoThink	0	5	0	0	0	0	1000	1	DON'T THINK	-16	0	0	0	0	0	0
2022-07-09	14:01:15	1	4	1	6.5.2	56	3	TNT_NoThink_CSm	TNT_NoThink_CSm	0	5	0	0	0	0	3000	3	Cue34.jpg	-16	0	0	0	0	0	0
2022-07-09	14:01:15	1	4	1	6.5.2	56	4	TNT_NoThink_CSm	Intrusion	0	500	3000	0	2	1	1275	1	How <b>often</b> did you <b>think</b> about the <b>scene</b>?   <center><br><b>NEVER (1)    BRIEFLY (2)   OFTEN (3) </b>	-16	0	0	0	0	0	0
2022-07-09	14:01:15	1	4	1	6.5.2	57	1	TNT_Think_CSm	fixation	0	5	1000	0	0	1	995	1	+	-11	0	0	0	0	0	0
2022-07-09	14:01:15	1	4	1	6.5.2	57	2	TNT_Think_CSm	Think	0	5	0	0	0	0	1000	1	THINK	-11	0	0	0	0	0	0
2022-07-09	14:01:15	1	4	1	6.5.2	57	3	TNT_Think_CSm	TNT_Think_CSm	0	5	0	0	0	0	6000	2	Cue6.jpg	-16	0	0	0	0	0	0
2022-07-09	14:01:15	1	4	1	6.5.2	57	4	TNT_Think_CSm	Intrusion	0	1000	3000	0	4	1	803	1	How <b>often</b> did you <b>think</b> about the <b>scene</b>?   <center><br><b>NEVER (1)    BRIEFLY (2)   OFTEN (3) </b>	-16	0	0	0	0	0	0
2022-07-09	14:01:15	1	4	1	6.5.2	58	1	TNT_Think_CSp	fixation	0	5	1000	0	0	1	995	1	+	-10	0	0	0	0	0	0
2022-07-09	14:01:15	1	4	1	6.5.2	58	2	TNT_Think_CSp	Think	0	5	0	0	0	0	1000	1	THINK	-16	0	0	0	0	0	0
2022-07-09	14:01:15	1	4	1	6.5.2	58	3	TNT_Think_CSp	TNT_Think_CSp	0	5	0	0	0	0	6000	4	Cue31.jpg	-16	0	0	0	0	0	0
2022-07-09	14:01:15	1	4	1	6.5.2	58	4	TNT_Think_CSp	Intrusion	0	1000	3000	0	4	1	922	1	How <b>often</b> did you <b>think</b> about the <b>scene</b>?   <center><br><b>NEVER (1)    BRIEFLY (2)   OFTEN (3) </b>	-16	0	0	0	0	0	0
2022-07-09	14:01:15	1	4	1	6.5.2	59	1	TNT_Think_CSp	fixation	0	5	1500	0	0	1	1495	1	+	-11	0	0	0	0	0	0
2022-07-09	14:01:15	1	4	1	6.5.2	59	2	TNT_Think_CSp	Think	0	5	0	0	0	0	1000	1	THINK	-16	0	0	0	0	0	0
2022-07-09	14:01:15	1	4	1	6.5.2	59	3	TNT_Think_CSp	TNT_Think_CSp	0	5	0	0	0	0	6000	5	Cue7.jpg	-16	0	0	0	0	0	0
2022-07-09	14:01:15	1	4	1	6.5.2	59	4	TNT_Think_CSp	Intrusion	0	1500	3000	0	4	1	674	1	How <b>often</b> did you <b>think</b> about the <b>scene</b>?   <center><br><b>NEVER (1)    BRIEFLY (2)   OFTEN (3) </b>	-16	0	0	0	0	0	0
2022-07-09	14:01:15	1	4	1	6.5.2	60	1	TNT_NoThink_CSm	fixation	0	5	500	0	0	1	495	1	+	-11	0	0	0	0	0	0
2022-07-09	14:01:15	1	4	1	6.5.2	60	2	TNT_NoThink_CSm	NoThink	0	5	0	0	0	0	1000	1	DON'T THINK	-16	0	0	0	0	0	0
2022-07-09	14:01:15	1	4	1	6.5.2	60	3	TNT_NoThink_CSm	TNT_NoThink_CSm	0	5	0	0	0	0	3000	1	Cue36.jpg	-16	0	0	0	0	0	0
2022-07-09	14:01:15	1	4	1	6.5.2	60	4	TNT_NoThink_CSm	Intrusion	0	500	3000	0	2	1	658	1	How <b>often</b> did you <b>think</b> about the <b>scene</b>?   <center><br><b>NEVER (1)    BRIEFLY (2)   OFTEN (3) </b>	-16	0	0	0	0	0	0
2022-07-09	14:01:15	1	4	1	6.5.2	61	1	TNT_Think_CSm	fixation	0	5	500	0	0	1	495	1	+	-11	0	0	0	0	0	0
2022-07-09	14:01:15	1	4	1	6.5.2	61	2	TNT_Think_CSm	Think	0	5	0	0	0	0	1000	1	THINK	-11	0	0	0	0	0	0
2022-07-09	14:01:15	1	4	1	6.5.2	61	3	TNT_Think_CSm	TNT_Think_CSm	0	5	0	0	0	0	6000	3	Cue14.jpg	-16	0	0	0	0	0	0
2022-07-09	14:01:15	1	4	1	6.5.2	61	4	TNT_Think_CSm	Intrusion	0	1500	3000	0	4	1	1131	1	How <b>often</b> did you <b>think</b> about the <b>scene</b>?   <center><br><b>NEVER (1)    BRIEFLY (2)   OFTEN (3) </b>	-16	0	0	0	0	0	0
2022-07-09	14:01:15	1	4	1	6.5.2	62	1	TNT_NoThink_CSm	fixation	0	5	1000	0	0	1	995	1	+	-11	0	0	0	0	0	0
2022-07-09	14:01:15	1	4	1	6.5.2	62	2	TNT_NoThink_CSm	NoThink	0	5	0	0	0	0	1000	1	DON'T THINK	-16	0	0	0	0	0	0
2022-07-09	14:01:15	1	4	1	6.5.2	62	3	TNT_NoThink_CSm	TNT_NoThink_CSm	0	5	0	0	0	0	3000	2	Cue22.jpg	-16	0	0	0	0	0	0
2022-07-09	14:01:15	1	4	1	6.5.2	62	4	TNT_NoThink_CSm	Intrusion	0	1000	3000	0	0	0	2000	1	How <b>often</b> did you <b>think</b> about the <b>scene</b>?   <center><br><b>NEVER (1)    BRIEFLY (2)   OFTEN (3) </b>	-16	0	0	0	0	0	0
2022-07-09	14:01:15	1	4	1	6.5.2	63	1	TNT_Think_CSp	fixation	0	5	1500	0	0	1	1495	1	+	-11	0	0	0	0	0	0
2022-07-09	14:01:15	1	4	1	6.5.2	63	2	TNT_Think_CSp	Think	0	5	0	0	0	0	1000	1	THINK	-10	0	0	0	0	0	0
2022-07-09	14:01:15	1	4	1	6.5.2	63	3	TNT_Think_CSp	TNT_Think_CSp	0	5	0	0	0	0	6000	2	Cue35.jpg	-16	0	0	0	0	0	0
2022-07-09	14:01:15	1	4	1	6.5.2	63	4	TNT_Think_CSp	Intrusion	0	500	3000	0	4	1	607	1	How <b>often</b> did you <b>think</b> about the <b>scene</b>?   <center><br><b>NEVER (1)    BRIEFLY (2)   OFTEN (3) </b>	-16	0	0	0	0	0	0
2022-07-09	14:01:15	1	4	1	6.5.2	64	1	TNT_Object_CSp	fixation	0	5	1500	0	0	1	1495	1	+	-11	0	0	0	0	0	0
2022-07-09	14:01:15	1	4	1	6.5.2	64	2	TNT_Object_CSp	Passive	0	5	0	0	0	0	1000	1	VIEW	-16	0	0	0	0	0	0
2022-07-09	14:01:15	1	4	1	6.5.2	64	3	TNT_Object_CSp	TNT_Object_CSp	0	1000	0	0	0	0	3000	3	Object2.jpg	-16	0	0	0	0	0	0
2022-07-09	14:01:15	1	4	1	6.5.2	65	1	between_TNT	between_TNT	0	5	0	0	0	0	15000	1	<center> <br><br><br>This is the end of the block. <br><br> You have a 15 second break.	-16	0	0	0	0	0	0
2022-07-09	14:01:15	1	4	1	6.5.2	66	1	TNT_Think_CSp	fixation	0	5	500	0	0	1	495	1	+	-11	0	0	0	0	0	0
2022-07-09	14:01:15	1	4	1	6.5.2	66	2	TNT_Think_CSp	Think	0	5	0	0	0	0	1000	1	THINK	-16	0	0	0	0	0	0
2022-07-09	14:01:15	1	4	1	6.5.2	66	3	TNT_Think_CSp	TNT_Think_CSp	0	5	0	0	0	0	6000	1	Cue26.jpg	-16	0	0	0	0	0	0
2022-07-09	14:01:15	1	4	1	6.5.2	66	4	TNT_Think_CSp	Intrusion	0	1000	3000	0	4	1	1420	1	How <b>often</b> did you <b>think</b> about the <b>scene</b>?   <center><br><b>NEVER (1)    BRIEFLY (2)   OFTEN (3) </b>	-16	0	0	0	0	0	0
2022-07-09	14:01:15	1	4	1	6.5.2	67	1	TNT_NoThink_CSp	fixation	0	5	1000	0	0	1	995	1	+	-10	0	0	0	0	0	0
2022-07-09	14:01:15	1	4	1	6.5.2	67	2	TNT_NoThink_CSp	NoThink	0	5	0	0	0	0	1000	1	DON'T THINK	-16	0	0	0	0	0	0
2022-07-09	14:01:15	1	4	1	6.5.2	67	3	TNT_NoThink_CSp	TNT_NoThink_CSp	0	5	0	0	0	0	3000	2	Cue30.jpg	-16	0	0	0	0	0	0
2022-07-09	14:01:15	1	4	1	6.5.2	67	4	TNT_NoThink_CSp	Intrusion	0	1500	3000	0	2	1	578	1	How <b>often</b> did you <b>think</b> about the <b>scene</b>?   <center><br><b>NEVER (1)    BRIEFLY (2)   OFTEN (3) </b>	-16	0	0	0	0	0	0
2022-07-09	14:01:15	1	4	1	6.5.2	68	1	TNT_Object_CSp	fixation	0	5	500	0	0	1	495	1	+	-11	0	0	0	0	0	0
2022-07-09	14:01:15	1	4	1	6.5.2	68	2	TNT_Object_CSp	Passive	0	5	0	0	0	0	1000	1	VIEW	-11	0	0	0	0	0	0
2022-07-09	14:01:15	1	4	1	6.5.2	68	3	TNT_Object_CSp	TNT_Object_CSp	0	500	0	0	0	0	3000	1	Object8.jpg	-16	0	0	0	0	0	0
2022-07-09	14:01:15	1	4	1	6.5.2	69	1	TNT_Object_CSp	fixation	0	5	1500	0	0	1	1495	1	+	-10	0	0	0	0	0	0
2022-07-09	14:01:15	1	4	1	6.5.2	69	2	TNT_Object_CSp	Passive	0	5	0	0	0	0	1000	1	VIEW	-16	0	0	0	0	0	0
2022-07-09	14:01:15	1	4	1	6.5.2	69	3	TNT_Object_CSp	TNT_Object_CSp	0	500	0	0	0	0	3000	4	Object6.jpg	-16	0	0	0	0	0	0
2022-07-09	14:01:15	1	4	1	6.5.2	70	1	TNT_NoThink_CSm	fixation	0	5	1000	0	0	1	995	1	+	-10	0	0	0	0	0	0
2022-07-09	14:01:15	1	4	1	6.5.2	70	2	TNT_NoThink_CSm	NoThink	0	5	0	0	0	0	1000	1	DON'T THINK	-13	0	0	0	0	0	0
2022-07-09	14:01:15	1	4	1	6.5.2	70	3	TNT_NoThink_CSm	TNT_NoThink_CSm	0	5	0	0	0	0	3000	1	Cue36.jpg	-16	0	0	0	0	0	0
2022-07-09	14:01:15	1	4	1	6.5.2	70	4	TNT_NoThink_CSm	Intrusion	0	500	3000	0	2	1	319	1	How <b>often</b> did you <b>think</b> about the <b>scene</b>?   <center><br><b>NEVER (1)    BRIEFLY (2)   OFTEN (3) </b>	-16	0	0	0	0	0	0
2022-07-09	14:01:15	1	4	1	6.5.2	71	1	TNT_NoThink_CSm	fixation	0	5	1000	0	0	1	995	1	+	-10	0	0	0	0	0	0
2022-07-09	14:01:15	1	4	1	6.5.2	71	2	TNT_NoThink_CSm	NoThink	0	5	0	0	0	0	1000	1	DON'T THINK	-11	0	0	0	0	0	0
2022-07-09	14:01:15	1	4	1	6.5.2	71	3	TNT_NoThink_CSm	TNT_NoThink_CSm	0	5	0	0	0	0	3000	5	Cue13.jpg	-16	0	0	0	0	0	0
2022-07-09	14:01:15	1	4	1	6.5.2	71	4	TNT_NoThink_CSm	Intrusion	0	500	3000	0	2	1	717	1	How <b>often</b> did you <b>think</b> about the <b>scene</b>?   <center><br><b>NEVER (1)    BRIEFLY (2)   OFTEN (3) </b>	-16	0	0	0	0	0	0
2022-07-09	14:01:15	1	4	1	6.5.2	72	1	TNT_Think_CSp	fixation	0	5	1500	0	0	1	1495	1	+	-11	0	0	0	0	0	0
2022-07-09	14:01:15	1	4	1	6.5.2	72	2	TNT_Think_CSp	Think	0	5	0	0	0	0	1000	1	THINK	-10	0	0	0	0	0	0
2022-07-09	14:01:15	1	4	1	6.5.2	72	3	TNT_Think_CSp	TNT_Think_CSp	0	5	0	0	0	0	6000	5	Cue7.jpg	-16	0	0	0	0	0	0
2022-07-09	14:01:15	1	4	1	6.5.2	72	4	TNT_Think_CSp	Intrusion	0	1500	3000	0	4	1	563	1	How <b>often</b> did you <b>think</b> about the <b>scene</b>?   <center><br><b>NEVER (1)    BRIEFLY (2)   OFTEN (3) </b>	-16	0	0	0	0	0	0
2022-07-09	14:01:15	1	4	1	6.5.2	73	1	TNT_Object_CSm	fixation	0	5	500	0	0	1	495	1	+	-10	0	0	0	0	0	0
2022-07-09	14:01:15	1	4	1	6.5.2	73	2	TNT_Object_CSm	Passive	0	5	0	0	0	0	1000	1	VIEW	-16	0	0	0	0	0	0
2022-07-09	14:01:15	1	4	1	6.5.2	73	3	TNT_Object_CSm	TNT_Object_CSm	0	1500	0	0	0	0	3000	1	Object4.jpg	-16	0	0	0	0	0	0
2022-07-09	14:01:15	1	4	1	6.5.2	74	1	TNT_Think_CSm	fixation	0	5	500	0	0	1	495	1	+	-10	0	0	0	0	0	0
2022-07-09	14:01:15	1	4	1	6.5.2	74	2	TNT_Think_CSm	Think	0	5	0	0	0	0	1000	1	THINK	-16	0	0	0	0	0	0
2022-07-09	14:01:15	1	4	1	6.5.2	74	3	TNT_Think_CSm	TNT_Think_CSm	0	5	0	0	0	0	6000	2	Cue6.jpg	-16	0	0	0	0	0	0
2022-07-09	14:01:15	1	4	1	6.5.2	74	4	TNT_Think_CSm	Intrusion	0	1000	3000	0	4	1	814	1	How <b>often</b> did you <b>think</b> about the <b>scene</b>?   <center><br><b>NEVER (1)    BRIEFLY (2)   OFTEN (3) </b>	-16	0	0	0	0	0	0
2022-07-09	14:01:15	1	4	1	6.5.2	75	1	TNT_NoThink_CSp	fixation	0	5	1500	0	0	1	1495	1	+	-11	0	0	0	0	0	0
2022-07-09	14:01:15	1	4	1	6.5.2	75	2	TNT_NoThink_CSp	NoThink	0	5	0	0	0	0	1000	1	DON'T THINK	-16	0	0	0	0	0	0
2022-07-09	14:01:15	1	4	1	6.5.2	75	3	TNT_NoThink_CSp	TNT_NoThink_CSp	0	5	0	0	0	0	3000	4	Cue28.jpg	-16	0	0	0	0	0	0
2022-07-09	14:01:15	1	4	1	6.5.2	75	4	TNT_NoThink_CSp	Intrusion	0	1000	3000	0	2	1	431	1	How <b>often</b> did you <b>think</b> about the <b>scene</b>?   <center><br><b>NEVER (1)    BRIEFLY (2)   OFTEN (3) </b>	-16	0	0	0	0	0	0
2022-07-09	14:01:15	1	4	1	6.5.2	76	1	TNT_Think_CSp	fixation	0	5	1000	0	0	1	995	1	+	-10	0	0	0	0	0	0
2022-07-09	14:01:15	1	4	1	6.5.2	76	2	TNT_Think_CSp	Think	0	5	0	0	0	0	1000	1	THINK	-10	0	0	0	0	0	0
2022-07-09	14:01:15	1	4	1	6.5.2	76	3	TNT_Think_CSp	TNT_Think_CSp	0	5	0	0	0	0	6000	2	Cue35.jpg	-16	0	0	0	0	0	0
2022-07-09	14:01:15	1	4	1	6.5.2	76	4	TNT_Think_CSp	Intrusion	0	1500	3000	0	4	1	620	1	How <b>often</b> did you <b>think</b> about the <b>scene</b>?   <center><br><b>NEVER (1)    BRIEFLY (2)   OFTEN (3) </b>	-16	0	0	0	0	0	0
2022-07-09	14:01:15	1	4	1	6.5.2	77	1	TNT_NoThink_CSm	fixation	0	5	1500	0	0	1	1495	1	+	-10	0	0	0	0	0	0
2022-07-09	14:01:15	1	4	1	6.5.2	77	2	TNT_NoThink_CSm	NoThink	0	5	0	0	0	0	1000	1	DON'T THINK	-16	0	0	0	0	0	0
2022-07-09	14:01:15	1	4	1	6.5.2	77	3	TNT_NoThink_CSm	TNT_NoThink_CSm	0	5	0	0	0	0	3000	4	Cue24.jpg	-16	0	0	0	0	0	0
2022-07-09	14:01:15	1	4	1	6.5.2	77	4	TNT_NoThink_CSm	Intrusion	0	500	3000	0	2	1	434	1	How <b>often</b> did you <b>think</b> about the <b>scene</b>?   <center><br><b>NEVER (1)    BRIEFLY (2)   OFTEN (3) </b>	-16	0	0	0	0	0	0
2022-07-09	14:01:15	1	4	1	6.5.2	78	1	TNT_Object_CSm	fixation	0	5	500	0	0	1	495	1	+	-11	0	0	0	0	0	0
2022-07-09	14:01:15	1	4	1	6.5.2	78	2	TNT_Object_CSm	Passive	0	5	0	0	0	0	1000	1	VIEW	-11	0	0	0	0	0	0
2022-07-09	14:01:15	1	4	1	6.5.2	78	3	TNT_Object_CSm	TNT_Object_CSm	0	1000	0	0	0	0	3000	2	Object3.jpg	-16	0	0	0	0	0	0
2022-07-09	14:01:15	1	4	1	6.5.2	79	1	TNT_NoThink_CSp	fixation	0	5	1000	0	0	1	995	1	+	-10	0	0	0	0	0	0
2022-07-09	14:01:15	1	4	1	6.5.2	79	2	TNT_NoThink_CSp	NoThink	0	5	0	0	0	0	1000	1	DON'T THINK	-16	0	0	0	0	0	0
2022-07-09	14:01:15	1	4	1	6.5.2	79	3	TNT_NoThink_CSp	TNT_NoThink_CSp	0	5	0	0	0	0	3000	3	Cue1.jpg	-16	0	0	0	0	0	0
2022-07-09	14:01:15	1	4	1	6.5.2	79	4	TNT_NoThink_CSp	Intrusion	0	1000	3000	0	2	1	511	1	How <b>often</b> did you <b>think</b> about the <b>scene</b>?   <center><br><b>NEVER (1)    BRIEFLY (2)   OFTEN (3) </b>	-16	0	0	0	0	0	0
2022-07-09	14:01:15	1	4	1	6.5.2	80	1	TNT_Think_CSm	fixation	0	5	1500	0	0	1	1495	1	+	-11	0	0	0	0	0	0
2022-07-09	14:01:15	1	4	1	6.5.2	80	2	TNT_Think_CSm	Think	0	5	0	0	0	0	1000	1	THINK	-16	0	0	0	0	0	0
2022-07-09	14:01:15	1	4	1	6.5.2	80	3	TNT_Think_CSm	TNT_Think_CSm	0	5	0	0	0	0	6000	3	Cue14.jpg	-16	0	0	0	0	0	0
2022-07-09	14:01:15	1	4	1	6.5.2	80	4	TNT_Think_CSm	Intrusion	0	1500	3000	0	4	1	561	1	How <b>often</b> did you <b>think</b> about the <b>scene</b>?   <center><br><b>NEVER (1)    BRIEFLY (2)   OFTEN (3) </b>	-16	0	0	0	0	0	0
2022-07-09	14:01:15	1	4	1	6.5.2	81	1	TNT_Think_CSm	fixation	0	5	500	0	0	1	495	1	+	-10	0	0	0	0	0	0
2022-07-09	14:01:15	1	4	1	6.5.2	81	2	TNT_Think_CSm	Think	0	5	0	0	0	0	1000	1	THINK	-16	0	0	0	0	0	0
2022-07-09	14:01:15	1	4	1	6.5.2	81	3	TNT_Think_CSm	TNT_Think_CSm	0	5	0	0	0	0	6000	5	Cue5.jpg	-16	0	0	0	0	0	0
2022-07-09	14:01:15	1	4	1	6.5.2	81	4	TNT_Think_CSm	Intrusion	0	500	3000	0	4	1	436	1	How <b>often</b> did you <b>think</b> about the <b>scene</b>?   <center><br><b>NEVER (1)    BRIEFLY (2)   OFTEN (3) </b>	-16	0	0	0	0	0	0
2022-07-09	14:01:15	1	4	1	6.5.2	82	1	TNT_Think_CSp	fixation	0	5	1000	0	0	1	995	1	+	-11	0	0	0	0	0	0
2022-07-09	14:01:15	1	4	1	6.5.2	82	2	TNT_Think_CSp	Think	0	5	0	0	0	0	1000	1	THINK	-16	0	0	0	0	0	0
2022-07-09	14:01:15	1	4	1	6.5.2	82	3	TNT_Think_CSp	TNT_Think_CSp	0	5	0	0	0	0	6000	6	Cue4.jpg	-16	0	0	0	0	0	0
2022-07-09	14:01:15	1	4	1	6.5.2	82	4	TNT_Think_CSp	Intrusion	0	500	3000	0	4	1	566	1	How <b>often</b> did you <b>think</b> about the <b>scene</b>?   <center><br><b>NEVER (1)    BRIEFLY (2)   OFTEN (3) </b>	-16	0	0	0	0	0	0
2022-07-09	14:01:15	1	4	1	6.5.2	83	1	TNT_Object_CSm	fixation	0	5	1000	0	0	1	995	1	+	-11	0	0	0	0	0	0
2022-07-09	14:01:15	1	4	1	6.5.2	83	2	TNT_Object_CSm	Passive	0	5	0	0	0	0	1000	1	VIEW	-16	0	0	0	0	0	0
2022-07-09	14:01:15	1	4	1	6.5.2	83	3	TNT_Object_CSm	TNT_Object_CSm	0	500	0	0	0	0	3000	4	Object5.jpg	-16	0	0	0	0	0	0
2022-07-09	14:01:15	1	4	1	6.5.2	84	1	TNT_Think_CSp	fixation	0	5	500	0	0	1	495	1	+	-10	0	0	0	0	0	0
2022-07-09	14:01:15	1	4	1	6.5.2	84	2	TNT_Think_CSp	Think	0	5	0	0	0	0	1000	1	THINK	-16	0	0	0	0	0	0
2022-07-09	14:01:15	1	4	1	6.5.2	84	3	TNT_Think_CSp	TNT_Think_CSp	0	5	0	0	0	0	6000	3	Cue11.jpg	-16	0	0	0	0	0	0
2022-07-09	14:01:15	1	4	1	6.5.2	84	4	TNT_Think_CSp	Intrusion	0	1500	3000	0	4	1	364	1	How <b>often</b> did you <b>think</b> about the <b>scene</b>?   <center><br><b>NEVER (1)    BRIEFLY (2)   OFTEN (3) </b>	-16	0	0	0	0	0	0
2022-07-09	14:01:15	1	4	1	6.5.2	85	1	TNT_NoThink_CSp	fixation	0	5	1500	0	0	1	1495	1	+	-11	0	0	0	0	0	0
2022-07-09	14:01:15	1	4	1	6.5.2	85	2	TNT_NoThink_CSp	NoThink	0	5	0	0	0	0	1000	1	DON'T THINK	-16	0	0	0	0	0	0
2022-07-09	14:01:15	1	4	1	6.5.2	85	3	TNT_NoThink_CSp	TNT_NoThink_CSp	0	5	0	0	0	0	3000	1	Cue17.jpg	-16	0	0	0	0	0	0
2022-07-09	14:01:15	1	4	1	6.5.2	85	4	TNT_NoThink_CSp	Intrusion	0	1000	3000	0	2	1	532	1	How <b>often</b> did you <b>think</b> about the <b>scene</b>?   <center><br><b>NEVER (1)    BRIEFLY (2)   OFTEN (3) </b>	-16	0	0	0	0	0	0
2022-07-09	14:01:15	1	4	1	6.5.2	86	1	TNT_NoThink_CSp	fixation	0	5	1500	0	0	1	1495	1	+	-5	0	0	0	0	0	0
2022-07-09	14:01:15	1	4	1	6.5.2	86	2	TNT_NoThink_CSp	NoThink	0	5	0	0	0	0	1000	1	DON'T THINK	-16	0	0	0	0	0	0
2022-07-09	14:01:15	1	4	1	6.5.2	86	3	TNT_NoThink_CSp	TNT_NoThink_CSp	0	5	0	0	0	0	3000	5	Cue19.jpg	-16	0	0	0	0	0	0
2022-07-09	14:01:15	1	4	1	6.5.2	86	4	TNT_NoThink_CSp	Intrusion	0	500	3000	0	2	1	1226	1	How <b>often</b> did you <b>think</b> about the <b>scene</b>?   <center><br><b>NEVER (1)    BRIEFLY (2)   OFTEN (3) </b>	-16	0	0	0	0	0	0
2022-07-09	14:01:15	1	4	1	6.5.2	87	1	TNT_NoThink_CSm	fixation	0	5	500	0	0	1	495	1	+	-11	0	0	0	0	0	0
2022-07-09	14:01:15	1	4	1	6.5.2	87	2	TNT_NoThink_CSm	NoThink	0	5	0	0	0	0	1000	1	DON'T THINK	-10	0	0	0	0	0	0
2022-07-09	14:01:15	1	4	1	6.5.2	87	3	TNT_NoThink_CSm	TNT_NoThink_CSm	0	5	0	0	0	0	3000	2	Cue22.jpg	-16	0	0	0	0	0	0
2022-07-09	14:01:15	1	4	1	6.5.2	87	4	TNT_NoThink_CSm	Intrusion	0	1500	3000	0	2	1	514	1	How <b>often</b> did you <b>think</b> about the <b>scene</b>?   <center><br><b>NEVER (1)    BRIEFLY (2)   OFTEN (3) </b>	-16	0	0	0	0	0	0
2022-07-09	14:01:15	1	4	1	6.5.2	88	1	TNT_Object_CSp	fixation	0	5	1000	0	0	1	995	1	+	-10	0	0	0	0	0	0
2022-07-09	14:01:15	1	4	1	6.5.2	88	2	TNT_Object_CSp	Passive	0	5	0	0	0	0	1000	1	VIEW	-16	0	0	0	0	0	0
2022-07-09	14:01:15	1	4	1	6.5.2	88	3	TNT_Object_CSp	TNT_Object_CSp	0	1500	0	0	0	0	3000	3	Object2.jpg	-16	0	0	0	0	0	0
2022-07-09	14:01:15	1	4	1	6.5.2	89	1	TNT_Think_CSp	fixation	0	5	500	0	0	1	495	1	+	-10	0	0	0	0	0	0
2022-07-09	14:01:15	1	4	1	6.5.2	89	2	TNT_Think_CSp	Think	0	5	0	0	0	0	1000	1	THINK	-16	0	0	0	0	0	0
2022-07-09	14:01:15	1	4	1	6.5.2	89	3	TNT_Think_CSp	TNT_Think_CSp	0	5	0	0	0	0	6000	4	Cue31.jpg	-16	0	0	0	0	0	0
2022-07-09	14:01:15	1	4	1	6.5.2	89	4	TNT_Think_CSp	Intrusion	0	1000	3000	0	4	1	589	1	How <b>often</b> did you <b>think</b> about the <b>scene</b>?   <center><br><b>NEVER (1)    BRIEFLY (2)   OFTEN (3) </b>	-16	0	0	0	0	0	0
2022-07-09	14:01:15	1	4	1	6.5.2	90	1	TNT_NoThink_CSm	fixation	0	5	1000	0	0	1	995	1	+	-10	0	0	0	0	0	0
2022-07-09	14:01:15	1	4	1	6.5.2	90	2	TNT_NoThink_CSm	NoThink	0	5	0	0	0	0	1000	1	DON'T THINK	-16	0	0	0	0	0	0
2022-07-09	14:01:15	1	4	1	6.5.2	90	3	TNT_NoThink_CSm	TNT_NoThink_CSm	0	5	0	0	0	0	3000	6	Cue29.jpg	-16	0	0	0	0	0	0
2022-07-09	14:01:15	1	4	1	6.5.2	90	4	TNT_NoThink_CSm	Intrusion	0	500	3000	0	2	1	1697	1	How <b>often</b> did you <b>think</b> about the <b>scene</b>?   <center><br><b>NEVER (1)    BRIEFLY (2)   OFTEN (3) </b>	-16	0	0	0	0	0	0
2022-07-09	14:01:15	1	4	1	6.5.2	91	1	TNT_NoThink_CSp	fixation	0	5	1500	0	0	1	1495	1	+	-10	0	0	0	0	0	0
2022-07-09	14:01:15	1	4	1	6.5.2	91	2	TNT_NoThink_CSp	NoThink	0	5	0	0	0	0	1000	1	DON'T THINK	-16	0	0	0	0	0	0
2022-07-09	14:01:15	1	4	1	6.5.2	91	3	TNT_NoThink_CSp	TNT_NoThink_CSp	0	5	0	0	0	0	3000	6	Cue12.jpg	-16	0	0	0	0	0	0
2022-07-09	14:01:15	1	4	1	6.5.2	91	4	TNT_NoThink_CSp	Intrusion	0	1500	3000	0	2	1	603	1	How <b>often</b> did you <b>think</b> about the <b>scene</b>?   <center><br><b>NEVER (1)    BRIEFLY (2)   OFTEN (3) </b>	-16	0	0	0	0	0	0
2022-07-09	14:01:15	1	4	1	6.5.2	92	1	TNT_NoThink_CSm	fixation	0	5	1500	0	0	1	1495	1	+	-10	0	0	0	0	0	0
2022-07-09	14:01:15	1	4	1	6.5.2	92	2	TNT_NoThink_CSm	NoThink	0	5	0	0	0	0	1000	1	DON'T THINK	-10	0	0	0	0	0	0
2022-07-09	14:01:15	1	4	1	6.5.2	92	3	TNT_NoThink_CSm	TNT_NoThink_CSm	0	5	0	0	0	0	3000	3	Cue34.jpg	-16	0	0	0	0	0	0
2022-07-09	14:01:15	1	4	1	6.5.2	92	4	TNT_NoThink_CSm	Intrusion	0	1000	3000	0	2	1	541	1	How <b>often</b> did you <b>think</b> about the <b>scene</b>?   <center><br><b>NEVER (1)    BRIEFLY (2)   OFTEN (3) </b>	-16	0	0	0	0	0	0
2022-07-09	14:01:15	1	4	1	6.5.2	93	1	TNT_Think_CSm	fixation	0	5	500	0	0	1	495	1	+	-11	0	0	0	0	0	0
2022-07-09	14:01:15	1	4	1	6.5.2	93	2	TNT_Think_CSm	Think	0	5	0	0	0	0	1000	1	THINK	-11	0	0	0	0	0	0
2022-07-09	14:01:15	1	4	1	6.5.2	93	3	TNT_Think_CSm	TNT_Think_CSm	0	5	0	0	0	0	6000	4	Cue3.jpg	-16	0	0	0	0	0	0
2022-07-09	14:01:15	1	4	1	6.5.2	93	4	TNT_Think_CSm	Intrusion	0	1500	3000	0	4	1	538	1	How <b>often</b> did you <b>think</b> about the <b>scene</b>?   <center><br><b>NEVER (1)    BRIEFLY (2)   OFTEN (3) </b>	-16	0	0	0	0	0	0
2022-07-09	14:01:15	1	4	1	6.5.2	94	1	TNT_Think_CSm	fixation	0	5	1000	0	0	1	995	1	+	-10	0	0	0	0	0	0
2022-07-09	14:01:15	1	4	1	6.5.2	94	2	TNT_Think_CSm	Think	0	5	0	0	0	0	1000	1	THINK	-16	0	0	0	0	0	0
2022-07-09	14:01:15	1	4	1	6.5.2	94	3	TNT_Think_CSm	TNT_Think_CSm	0	5	0	0	0	0	6000	1	Cue32.jpg	-16	0	0	0	0	0	0
2022-07-09	14:01:15	1	4	1	6.5.2	94	4	TNT_Think_CSm	Intrusion	0	1000	3000	0	4	1	549	1	How <b>often</b> did you <b>think</b> about the <b>scene</b>?   <center><br><b>NEVER (1)    BRIEFLY (2)   OFTEN (3) </b>	-13	0	0	0	0	0	0
2022-07-09	14:01:15	1	4	1	6.5.2	95	1	TNT_Object_CSp	fixation	0	5	1000	0	0	1	995	1	+	-10	0	0	0	0	0	0
2022-07-09	14:01:15	1	4	1	6.5.2	95	2	TNT_Object_CSp	Passive	0	5	0	0	0	0	1000	1	VIEW	-16	0	0	0	0	0	0
2022-07-09	14:01:15	1	4	1	6.5.2	95	3	TNT_Object_CSp	TNT_Object_CSp	0	1000	0	0	0	0	3000	2	Object1.jpg	-16	0	0	0	0	0	0
2022-07-09	14:01:15	1	4	1	6.5.2	96	1	TNT_Think_CSm	fixation	0	5	500	0	0	1	495	1	+	-10	0	0	0	0	0	0
2022-07-09	14:01:15	1	4	1	6.5.2	96	2	TNT_Think_CSm	Think	0	5	0	0	0	0	1000	1	THINK	-16	0	0	0	0	0	0
2022-07-09	14:01:15	1	4	1	6.5.2	96	3	TNT_Think_CSm	TNT_Think_CSm	0	5	0	0	0	0	6000	6	Cue9.jpg	-16	0	0	0	0	0	0
2022-07-09	14:01:15	1	4	1	6.5.2	96	4	TNT_Think_CSm	Intrusion	0	500	3000	0	4	1	1284	1	How <b>often</b> did you <b>think</b> about the <b>scene</b>?   <center><br><b>NEVER (1)    BRIEFLY (2)   OFTEN (3) </b>	-16	0	0	0	0	0	0
2022-07-09	14:01:15	1	4	1	6.5.2	97	1	TNT_Object_CSm	fixation	0	5	1500	0	0	1	1495	1	+	-10	0	0	0	0	0	0
2022-07-09	14:01:15	1	4	1	6.5.2	97	2	TNT_Object_CSm	Passive	0	5	0	0	0	0	1000	1	VIEW	-16	0	0	0	0	0	0
2022-07-09	14:01:15	1	4	1	6.5.2	97	3	TNT_Object_CSm	TNT_Object_CSm	0	1500	0	0	0	0	3000	3	Object7.jpg	-16	0	0	0	0	0	0
2022-07-09	14:01:15	1	4	1	6.5.2	98	1	TNT_NoThink_CSm	fixation	0	5	500	0	0	1	495	1	+	-10	0	0	0	0	0	0
2022-07-09	14:01:15	1	4	1	6.5.2	98	2	TNT_NoThink_CSm	NoThink	0	5	0	0	0	0	1000	1	DON'T THINK	-16	0	0	0	0	0	0
2022-07-09	14:01:15	1	4	1	6.5.2	98	3	TNT_NoThink_CSm	TNT_NoThink_CSm	0	5	0	0	0	0	3000	4	Cue24.jpg	-16	0	0	0	0	0	0
2022-07-09	14:01:15	1	4	1	6.5.2	98	4	TNT_NoThink_CSm	Intrusion	0	1000	3000	0	2	1	591	1	How <b>often</b> did you <b>think</b> about the <b>scene</b>?   <center><br><b>NEVER (1)    BRIEFLY (2)   OFTEN (3) </b>	-16	0	0	0	0	0	0
2022-07-09	14:01:15	1	4	1	6.5.2	99	1	TNT_Think_CSm	fixation	0	5	1500	0	0	1	1495	1	+	-10	0	0	0	0	0	0
2022-07-09	14:01:15	1	4	1	6.5.2	99	2	TNT_Think_CSm	Think	0	5	0	0	0	0	1000	1	THINK	-16	0	0	0	0	0	0
2022-07-09	14:01:15	1	4	1	6.5.2	99	3	TNT_Think_CSm	TNT_Think_CSm	0	5	0	0	0	0	6000	3	Cue14.jpg	-16	0	0	0	0	0	0
2022-07-09	14:01:15	1	4	1	6.5.2	99	4	TNT_Think_CSm	Intrusion	0	1500	3000	0	4	1	593	1	How <b>often</b> did you <b>think</b> about the <b>scene</b>?   <center><br><b>NEVER (1)    BRIEFLY (2)   OFTEN (3) </b>	-16	0	0	0	0	0	0
2022-07-09	14:01:15	1	4	1	6.5.2	100	1	TNT_Think_CSm	fixation	0	5	1000	0	0	1	995	1	+	-11	0	0	0	0	0	0
2022-07-09	14:01:15	1	4	1	6.5.2	100	2	TNT_Think_CSm	Think	0	5	0	0	0	0	1000	1	THINK	-16	0	0	0	0	0	0
2022-07-09	14:01:15	1	4	1	6.5.2	100	3	TNT_Think_CSm	TNT_Think_CSm	0	5	0	0	0	0	6000	4	Cue3.jpg	-16	0	0	0	0	0	0
2022-07-09	14:01:15	1	4	1	6.5.2	100	4	TNT_Think_CSm	Intrusion	0	500	3000	0	4	1	577	1	How <b>often</b> did you <b>think</b> about the <b>scene</b>?   <center><br><b>NEVER (1)    BRIEFLY (2)   OFTEN (3) </b>	-16	0	0	0	0	0	0
2022-07-09	14:01:15	1	4	1	6.5.2	101	1	TNT_Object_CSp	fixation	0	5	1000	0	0	1	995	1	+	-10	0	0	0	0	0	0
2022-07-09	14:01:15	1	4	1	6.5.2	101	2	TNT_Object_CSp	Passive	0	5	0	0	0	0	1000	1	VIEW	-16	0	0	0	0	0	0
2022-07-09	14:01:15	1	4	1	6.5.2	101	3	TNT_Object_CSp	TNT_Object_CSp	0	500	0	0	0	0	3000	3	Object2.jpg	-16	0	0	0	0	0	0
2022-07-09	14:01:15	1	4	1	6.5.2	102	1	TNT_NoThink_CSm	fixation	0	5	1500	0	0	1	1495	1	+	-10	0	0	0	0	0	0
2022-07-09	14:01:15	1	4	1	6.5.2	102	2	TNT_NoThink_CSm	NoThink	0	5	0	0	0	0	1000	1	DON'T THINK	-16	0	0	0	0	0	0
2022-07-09	14:01:15	1	4	1	6.5.2	102	3	TNT_NoThink_CSm	TNT_NoThink_CSm	0	5	0	0	0	0	3000	1	Cue36.jpg	-16	0	0	0	0	0	0
2022-07-09	14:01:15	1	4	1	6.5.2	102	4	TNT_NoThink_CSm	Intrusion	0	1000	3000	0	2	1	463	1	How <b>often</b> did you <b>think</b> about the <b>scene</b>?   <center><br><b>NEVER (1)    BRIEFLY (2)   OFTEN (3) </b>	-16	0	0	0	0	0	0
2022-07-09	14:01:15	1	4	1	6.5.2	103	1	TNT_Think_CSm	fixation	0	5	500	0	0	1	495	1	+	-10	0	0	0	0	0	0
2022-07-09	14:01:15	1	4	1	6.5.2	103	2	TNT_Think_CSm	Think	0	5	0	0	0	0	1000	1	THINK	-10	0	0	0	0	0	0
2022-07-09	14:01:15	1	4	1	6.5.2	103	3	TNT_Think_CSm	TNT_Think_CSm	0	5	0	0	0	0	6000	5	Cue5.jpg	-16	0	0	0	0	0	0
2022-07-09	14:01:15	1	4	1	6.5.2	103	4	TNT_Think_CSm	Intrusion	0	500	3000	0	4	1	792	1	How <b>often</b> did you <b>think</b> about the <b>scene</b>?   <center><br><b>NEVER (1)    BRIEFLY (2)   OFTEN (3) </b>	-16	0	0	0	0	0	0
2022-07-09	14:01:15	1	4	1	6.5.2	104	1	TNT_Object_CSm	fixation	0	5	1500	0	0	1	1495	1	+	-10	0	0	0	0	0	0
2022-07-09	14:01:15	1	4	1	6.5.2	104	2	TNT_Object_CSm	Passive	0	5	0	0	0	0	1000	1	VIEW	-16	0	0	0	0	0	0
2022-07-09	14:01:15	1	4	1	6.5.2	104	3	TNT_Object_CSm	TNT_Object_CSm	0	1000	0	0	0	0	3000	4	Object5.jpg	-16	0	0	0	0	0	0
2022-07-09	14:01:15	1	4	1	6.5.2	105	1	TNT_NoThink_CSm	fixation	0	5	500	0	0	1	495	1	+	-10	0	0	0	0	0	0
2022-07-09	14:01:15	1	4	1	6.5.2	105	2	TNT_NoThink_CSm	NoThink	0	5	0	0	0	0	1000	1	DON'T THINK	-16	0	0	0	0	0	0
2022-07-09	14:01:15	1	4	1	6.5.2	105	3	TNT_NoThink_CSm	TNT_NoThink_CSm	0	5	0	0	0	0	3000	5	Cue13.jpg	-16	0	0	0	0	0	0
2022-07-09	14:01:15	1	4	1	6.5.2	105	4	TNT_NoThink_CSm	Intrusion	0	1500	3000	0	2	1	895	1	How <b>often</b> did you <b>think</b> about the <b>scene</b>?   <center><br><b>NEVER (1)    BRIEFLY (2)   OFTEN (3) </b>	-16	0	0	0	0	0	0
2022-07-09	14:01:15	1	4	1	6.5.2	106	1	TNT_Object_CSm	fixation	0	5	1000	0	0	1	995	1	+	-10	0	0	0	0	0	0
2022-07-09	14:01:15	1	4	1	6.5.2	106	2	TNT_Object_CSm	Passive	0	5	0	0	0	0	1000	1	VIEW	-11	0	0	0	0	0	0
2022-07-09	14:01:15	1	4	1	6.5.2	106	3	TNT_Object_CSm	TNT_Object_CSm	0	1500	0	0	0	0	3000	2	Object3.jpg	-16	0	0	0	0	0	0
2022-07-09	14:01:15	1	4	1	6.5.2	107	1	TNT_Think_CSm	fixation	0	5	1000	0	0	1	995	1	+	-11	0	0	0	0	0	0
2022-07-09	14:01:15	1	4	1	6.5.2	107	2	TNT_Think_CSm	Think	0	5	0	0	0	0	1000	1	THINK	-16	0	0	0	0	0	0
2022-07-09	14:01:15	1	4	1	6.5.2	107	3	TNT_Think_CSm	TNT_Think_CSm	0	5	0	0	0	0	6000	1	Cue32.jpg	-16	0	0	0	0	0	0
2022-07-09	14:01:15	1	4	1	6.5.2	107	4	TNT_Think_CSm	Intrusion	0	500	3000	0	4	1	378	1	How <b>often</b> did you <b>think</b> about the <b>scene</b>?   <center><br><b>NEVER (1)    BRIEFLY (2)   OFTEN (3) </b>	-16	0	0	0	0	0	0
2022-07-09	14:01:15	1	4	1	6.5.2	108	1	TNT_Think_CSm	fixation	0	5	500	0	0	1	495	1	+	-10	0	0	0	0	0	0
2022-07-09	14:01:15	1	4	1	6.5.2	108	2	TNT_Think_CSm	Think	0	5	0	0	0	0	1000	1	THINK	-16	0	0	0	0	0	0
2022-07-09	14:01:15	1	4	1	6.5.2	108	3	TNT_Think_CSm	TNT_Think_CSm	0	5	0	0	0	0	6000	6	Cue9.jpg	-16	0	0	0	0	0	0
2022-07-09	14:01:15	1	4	1	6.5.2	108	4	TNT_Think_CSm	Intrusion	0	1500	3000	0	4	1	605	1	How <b>often</b> did you <b>think</b> about the <b>scene</b>?   <center><br><b>NEVER (1)    BRIEFLY (2)   OFTEN (3) </b>	-16	0	0	0	0	0	0
2022-07-09	14:01:15	1	4	1	6.5.2	109	1	TNT_NoThink_CSp	fixation	0	5	1500	0	0	1	1495	1	+	-10	0	0	0	0	0	0
2022-07-09	14:01:15	1	4	1	6.5.2	109	2	TNT_NoThink_CSp	NoThink	0	5	0	0	0	0	1000	1	DON'T THINK	-16	0	0	0	0	0	0
2022-07-09	14:01:15	1	4	1	6.5.2	109	3	TNT_NoThink_CSp	TNT_NoThink_CSp	0	5	0	0	0	0	3000	4	Cue28.jpg	-16	0	0	0	0	0	0
2022-07-09	14:01:15	1	4	1	6.5.2	109	4	TNT_NoThink_CSp	Intrusion	0	1000	3000	0	2	1	854	1	How <b>often</b> did you <b>think</b> about the <b>scene</b>?   <center><br><b>NEVER (1)    BRIEFLY (2)   OFTEN (3) </b>	-16	0	0	0	0	0	0
2022-07-09	14:01:15	1	4	1	6.5.2	110	1	TNT_Think_CSp	fixation	0	5	500	0	0	1	495	1	+	-10	0	0	0	0	0	0
2022-07-09	14:01:15	1	4	1	6.5.2	110	2	TNT_Think_CSp	Think	0	5	0	0	0	0	1000	1	THINK	-11	0	0	0	0	0	0
2022-07-09	14:01:15	1	4	1	6.5.2	110	3	TNT_Think_CSp	TNT_Think_CSp	0	5	0	0	0	0	6000	2	Cue35.jpg	-16	0	0	0	0	0	0
2022-07-09	14:01:15	1	4	1	6.5.2	110	4	TNT_Think_CSp	Intrusion	0	1000	3000	0	4	1	908	1	How <b>often</b> did you <b>think</b> about the <b>scene</b>?   <center><br><b>NEVER (1)    BRIEFLY (2)   OFTEN (3) </b>	-16	0	0	0	0	0	0
2022-07-09	14:01:15	1	4	1	6.5.2	111	1	TNT_NoThink_CSp	fixation	0	5	1000	0	0	1	995	1	+	-11	0	0	0	0	0	0
2022-07-09	14:01:15	1	4	1	6.5.2	111	2	TNT_NoThink_CSp	NoThink	0	5	0	0	0	0	1000	1	DON'T THINK	-16	0	0	0	0	0	0
2022-07-09	14:01:15	1	4	1	6.5.2	111	3	TNT_NoThink_CSp	TNT_NoThink_CSp	0	5	0	0	0	0	3000	6	Cue12.jpg	-16	0	0	0	0	0	0
2022-07-09	14:01:15	1	4	1	6.5.2	111	4	TNT_NoThink_CSp	Intrusion	0	1500	3000	0	0	0	1500	1	How <b>often</b> did you <b>think</b> about the <b>scene</b>?   <center><br><b>NEVER (1)    BRIEFLY (2)   OFTEN (3) </b>	-16	0	0	0	0	0	0
2022-07-09	14:01:15	1	4	1	6.5.2	112	1	TNT_Think_CSp	fixation	0	5	1500	0	0	1	1495	1	+	-11	0	0	0	0	0	0
2022-07-09	14:01:15	1	4	1	6.5.2	112	2	TNT_Think_CSp	Think	0	5	0	0	0	0	1000	1	THINK	-11	0	0	0	0	0	0
2022-07-09	14:01:15	1	4	1	6.5.2	112	3	TNT_Think_CSp	TNT_Think_CSp	0	5	0	0	0	0	6000	4	Cue31.jpg	-16	0	0	0	0	0	0
2022-07-09	14:01:15	1	4	1	6.5.2	112	4	TNT_Think_CSp	Intrusion	0	500	3000	0	4	1	807	1	How <b>often</b> did you <b>think</b> about the <b>scene</b>?   <center><br><b>NEVER (1)    BRIEFLY (2)   OFTEN (3) </b>	-16	0	0	0	0	0	0
2022-07-09	14:01:15	1	4	1	6.5.2	113	1	TNT_NoThink_CSp	fixation	0	5	1000	0	0	1	995	1	+	-6	0	0	0	0	0	0
2022-07-09	14:01:15	1	4	1	6.5.2	113	2	TNT_NoThink_CSp	NoThink	0	5	0	0	0	0	1000	1	DON'T THINK	0	0	0	0	0	0	0
2022-07-09	14:01:15	1	4	1	6.5.2	113	3	TNT_NoThink_CSp	TNT_NoThink_CSp	0	5	0	0	0	0	3000	3	Cue1.jpg	-11	0	0	0	0	0	0
2022-07-09	14:01:15	1	4	1	6.5.2	113	4	TNT_NoThink_CSp	Intrusion	0	500	3000	0	2	1	606	1	How <b>often</b> did you <b>think</b> about the <b>scene</b>?   <center><br><b>NEVER (1)    BRIEFLY (2)   OFTEN (3) </b>	-16	0	0	0	0	0	0
2022-07-09	14:01:15	1	4	1	6.5.2	114	1	TNT_Think_CSm	fixation	0	5	500	0	0	1	495	1	+	-10	0	0	0	0	0	0
2022-07-09	14:01:15	1	4	1	6.5.2	114	2	TNT_Think_CSm	Think	0	5	0	0	0	0	1000	1	THINK	-16	0	0	0	0	0	0
2022-07-09	14:01:15	1	4	1	6.5.2	114	3	TNT_Think_CSm	TNT_Think_CSm	0	5	0	0	0	0	6000	2	Cue6.jpg	-16	0	0	0	0	0	0
2022-07-09	14:01:15	1	4	1	6.5.2	114	4	TNT_Think_CSm	Intrusion	0	1500	3000	0	4	1	533	1	How <b>often</b> did you <b>think</b> about the <b>scene</b>?   <center><br><b>NEVER (1)    BRIEFLY (2)   OFTEN (3) </b>	-16	0	0	0	0	0	0
2022-07-09	14:01:15	1	4	1	6.5.2	115	1	TNT_Object_CSm	fixation	0	5	1500	0	0	1	1495	1	+	-10	0	0	0	0	0	0
2022-07-09	14:01:15	1	4	1	6.5.2	115	2	TNT_Object_CSm	Passive	0	5	0	0	0	0	1000	1	VIEW	-16	0	0	0	0	0	0
2022-07-09	14:01:15	1	4	1	6.5.2	115	3	TNT_Object_CSm	TNT_Object_CSm	0	500	0	0	0	0	3000	3	Object7.jpg	-16	0	0	0	0	0	0
2022-07-09	14:01:15	1	4	1	6.5.2	116	1	TNT_NoThink_CSp	fixation	0	5	1500	0	0	1	1495	1	+	-10	0	0	0	0	0	0
2022-07-09	14:01:15	1	4	1	6.5.2	116	2	TNT_NoThink_CSp	NoThink	0	5	0	0	0	0	1000	1	DON'T THINK	-16	0	0	0	0	0	0
2022-07-09	14:01:15	1	4	1	6.5.2	116	3	TNT_NoThink_CSp	TNT_NoThink_CSp	0	5	0	0	0	0	3000	5	Cue19.jpg	-16	0	0	0	0	0	0
2022-07-09	14:01:15	1	4	1	6.5.2	116	4	TNT_NoThink_CSp	Intrusion	0	1000	3000	0	3	1	550	1	How <b>often</b> did you <b>think</b> about the <b>scene</b>?   <center><br><b>NEVER (1)    BRIEFLY (2)   OFTEN (3) </b>	-16	0	0	0	0	0	0
2022-07-09	14:01:15	1	4	1	6.5.2	117	1	TNT_Object_CSp	fixation	0	5	500	0	0	1	495	1	+	-10	0	0	0	0	0	0
2022-07-09	14:01:15	1	4	1	6.5.2	117	2	TNT_Object_CSp	Passive	0	5	0	0	0	0	1000	1	VIEW	-10	0	0	0	0	0	0
2022-07-09	14:01:15	1	4	1	6.5.2	117	3	TNT_Object_CSp	TNT_Object_CSp	0	1000	0	0	0	0	3000	4	Object6.jpg	-16	0	0	0	0	0	0
2022-07-09	14:01:15	1	4	1	6.5.2	118	1	TNT_Think_CSp	fixation	0	5	1000	0	0	1	995	1	+	-10	0	0	0	0	0	0
2022-07-09	14:01:15	1	4	1	6.5.2	118	2	TNT_Think_CSp	Think	0	5	0	0	0	0	1000	1	THINK	-16	0	0	0	0	0	0
2022-07-09	14:01:15	1	4	1	6.5.2	118	3	TNT_Think_CSp	TNT_Think_CSp	0	5	0	0	0	0	6000	5	Cue7.jpg	-16	0	0	0	0	0	0
2022-07-09	14:01:15	1	4	1	6.5.2	118	4	TNT_Think_CSp	Intrusion	0	1500	3000	0	4	1	451	1	How <b>often</b> did you <b>think</b> about the <b>scene</b>?   <center><br><b>NEVER (1)    BRIEFLY (2)   OFTEN (3) </b>	-16	0	0	0	0	0	0
2022-07-09	14:01:15	1	4	1	6.5.2	119	1	TNT_Object_CSm	fixation	0	5	500	0	0	1	495	1	+	-11	0	0	0	0	0	0
2022-07-09	14:01:15	1	4	1	6.5.2	119	2	TNT_Object_CSm	Passive	0	5	0	0	0	0	1000	1	VIEW	-16	0	0	0	0	0	0
2022-07-09	14:01:15	1	4	1	6.5.2	119	3	TNT_Object_CSm	TNT_Object_CSm	0	1000	0	0	0	0	3000	1	Object4.jpg	-16	0	0	0	0	0	0
2022-07-09	14:01:15	1	4	1	6.5.2	120	1	TNT_NoThink_CSp	fixation	0	5	1500	0	0	1	1495	1	+	-10	0	0	0	0	0	0
2022-07-09	14:01:15	1	4	1	6.5.2	120	2	TNT_NoThink_CSp	NoThink	0	5	0	0	0	0	1000	1	DON'T THINK	-16	0	0	0	0	0	0
2022-07-09	14:01:15	1	4	1	6.5.2	120	3	TNT_NoThink_CSp	TNT_NoThink_CSp	0	5	0	0	0	0	3000	1	Cue17.jpg	-16	0	0	0	0	0	0
2022-07-09	14:01:15	1	4	1	6.5.2	120	4	TNT_NoThink_CSp	Intrusion	0	1000	3000	0	3	1	945	1	How <b>often</b> did you <b>think</b> about the <b>scene</b>?   <center><br><b>NEVER (1)    BRIEFLY (2)   OFTEN (3) </b>	98	0	0	0	0	0	0
2022-07-09	14:01:15	1	4	1	6.5.2	121	1	TNT_Object_CSp	fixation	0	5	1000	0	0	1	995	1	+	-10	0	0	0	0	0	0
2022-07-09	14:01:15	1	4	1	6.5.2	121	2	TNT_Object_CSp	Passive	0	5	0	0	0	0	1000	1	VIEW	-16	0	0	0	0	0	0
2022-07-09	14:01:15	1	4	1	6.5.2	121	3	TNT_Object_CSp	TNT_Object_CSp	0	1500	0	0	0	0	3000	2	Object1.jpg	-16	0	0	0	0	0	0
2022-07-09	14:01:15	1	4	1	6.5.2	122	1	TNT_NoThink_CSm	fixation	0	5	1500	0	0	1	1495	1	+	-11	0	0	0	0	0	0
2022-07-09	14:01:15	1	4	1	6.5.2	122	2	TNT_NoThink_CSm	NoThink	0	5	0	0	0	0	1000	1	DON'T THINK	-16	0	0	0	0	0	0
2022-07-09	14:01:15	1	4	1	6.5.2	122	3	TNT_NoThink_CSm	TNT_NoThink_CSm	0	5	0	0	0	0	3000	2	Cue22.jpg	-16	0	0	0	0	0	0
2022-07-09	14:01:15	1	4	1	6.5.2	122	4	TNT_NoThink_CSm	Intrusion	0	500	3000	0	2	1	364	1	How <b>often</b> did you <b>think</b> about the <b>scene</b>?   <center><br><b>NEVER (1)    BRIEFLY (2)   OFTEN (3) </b>	-16	0	0	0	0	0	0
2022-07-09	14:01:15	1	4	1	6.5.2	123	1	TNT_Object_CSp	fixation	0	5	500	0	0	1	495	1	+	-11	0	0	0	0	0	0
2022-07-09	14:01:15	1	4	1	6.5.2	123	2	TNT_Object_CSp	Passive	0	5	0	0	0	0	1000	1	VIEW	-10	0	0	0	0	0	0
2022-07-09	14:01:15	1	4	1	6.5.2	123	3	TNT_Object_CSp	TNT_Object_CSp	0	1000	0	0	0	0	3000	1	Object8.jpg	-16	0	0	0	0	0	0
2022-07-09	14:01:15	1	4	1	6.5.2	124	1	TNT_NoThink_CSm	fixation	0	5	1000	0	0	1	995	1	+	-11	0	0	0	0	0	0
2022-07-09	14:01:15	1	4	1	6.5.2	124	2	TNT_NoThink_CSm	NoThink	0	5	0	0	0	0	1000	1	DON'T THINK	-16	0	0	0	0	0	0
2022-07-09	14:01:15	1	4	1	6.5.2	124	3	TNT_NoThink_CSm	TNT_NoThink_CSm	0	5	0	0	0	0	3000	6	Cue29.jpg	-16	0	0	0	0	0	0
2022-07-09	14:01:15	1	4	1	6.5.2	124	4	TNT_NoThink_CSm	Intrusion	0	500	3000	0	2	1	659	1	How <b>often</b> did you <b>think</b> about the <b>scene</b>?   <center><br><b>NEVER (1)    BRIEFLY (2)   OFTEN (3) </b>	-16	0	0	0	0	0	0
2022-07-09	14:01:15	1	4	1	6.5.2	125	1	TNT_Think_CSp	fixation	0	5	1000	0	0	1	995	1	+	-10	0	0	0	0	0	0
2022-07-09	14:01:15	1	4	1	6.5.2	125	2	TNT_Think_CSp	Think	0	5	0	0	0	0	1000	1	THINK	-10	0	0	0	0	0	0
2022-07-09	14:01:15	1	4	1	6.5.2	125	3	TNT_Think_CSp	TNT_Think_CSp	0	5	0	0	0	0	6000	1	Cue26.jpg	-16	0	0	0	0	0	0
2022-07-09	14:01:15	1	4	1	6.5.2	125	4	TNT_Think_CSp	Intrusion	0	1000	3000	0	4	1	349	1	How <b>often</b> did you <b>think</b> about the <b>scene</b>?   <center><br><b>NEVER (1)    BRIEFLY (2)   OFTEN (3) </b>	-16	0	0	0	0	0	0
2022-07-09	14:01:15	1	4	1	6.5.2	126	1	TNT_NoThink_CSp	fixation	0	5	1500	0	0	1	1495	1	+	-10	0	0	0	0	0	0
2022-07-09	14:01:15	1	4	1	6.5.2	126	2	TNT_NoThink_CSp	NoThink	0	5	0	0	0	0	1000	1	DON'T THINK	-16	0	0	0	0	0	0
2022-07-09	14:01:15	1	4	1	6.5.2	126	3	TNT_NoThink_CSp	TNT_NoThink_CSp	0	5	0	0	0	0	3000	2	Cue30.jpg	-16	0	0	0	0	0	0
2022-07-09	14:01:15	1	4	1	6.5.2	126	4	TNT_NoThink_CSp	Intrusion	0	1500	3000	0	2	1	592	1	How <b>often</b> did you <b>think</b> about the <b>scene</b>?   <center><br><b>NEVER (1)    BRIEFLY (2)   OFTEN (3) </b>	-16	0	0	0	0	0	0
2022-07-09	14:01:15	1	4	1	6.5.2	127	1	TNT_NoThink_CSm	fixation	0	5	500	0	0	1	495	1	+	-10	0	0	0	0	0	0
2022-07-09	14:01:15	1	4	1	6.5.2	127	2	TNT_NoThink_CSm	NoThink	0	5	0	0	0	0	1000	1	DON'T THINK	-10	0	0	0	0	0	0
2022-07-09	14:01:15	1	4	1	6.5.2	127	3	TNT_NoThink_CSm	TNT_NoThink_CSm	0	5	0	0	0	0	3000	3	Cue34.jpg	-16	0	0	0	0	0	0
2022-07-09	14:01:15	1	4	1	6.5.2	127	4	TNT_NoThink_CSm	Intrusion	0	500	3000	0	2	1	2036	1	How <b>often</b> did you <b>think</b> about the <b>scene</b>?   <center><br><b>NEVER (1)    BRIEFLY (2)   OFTEN (3) </b>	-16	0	0	0	0	0	0
2022-07-09	14:01:15	1	4	1	6.5.2	128	1	TNT_Think_CSp	fixation	0	5	1000	0	0	1	995	1	+	-10	0	0	0	0	0	0
2022-07-09	14:01:15	1	4	1	6.5.2	128	2	TNT_Think_CSp	Think	0	5	0	0	0	0	1000	1	THINK	-8	0	0	0	0	0	0
2022-07-09	14:01:15	1	4	1	6.5.2	128	3	TNT_Think_CSp	TNT_Think_CSp	0	5	0	0	0	0	6000	3	Cue11.jpg	-16	0	0	0	0	0	0
2022-07-09	14:01:15	1	4	1	6.5.2	128	4	TNT_Think_CSp	Intrusion	0	1500	3000	0	4	1	617	1	How <b>often</b> did you <b>think</b> about the <b>scene</b>?   <center><br><b>NEVER (1)    BRIEFLY (2)   OFTEN (3) </b>	-16	0	0	0	0	0	0
2022-07-09	14:01:15	1	4	1	6.5.2	129	1	TNT_Think_CSp	fixation	0	5	500	0	0	1	495	1	+	-11	0	0	0	0	0	0
2022-07-09	14:01:15	1	4	1	6.5.2	129	2	TNT_Think_CSp	Think	0	5	0	0	0	0	1000	1	THINK	-16	0	0	0	0	0	0
2022-07-09	14:01:15	1	4	1	6.5.2	129	3	TNT_Think_CSp	TNT_Think_CSp	0	5	0	0	0	0	6000	6	Cue4.jpg	-16	0	0	0	0	0	0
2022-07-09	14:01:15	1	4	1	6.5.2	129	4	TNT_Think_CSp	Intrusion	0	1000	3000	0	4	1	554	1	How <b>often</b> did you <b>think</b> about the <b>scene</b>?   <center><br><b>NEVER (1)    BRIEFLY (2)   OFTEN (3) </b>	-16	0	0	0	0	0	0
2022-07-09	14:01:15	1	4	1	6.5.2	130	1	between_TNT	between_TNT	0	5	0	0	0	0	15000	1	<center> <br><br><br>This is the end of the block. <br><br> You have a 15 second break.	-10	0	0	0	0	0	0
2022-07-09	14:01:15	1	4	1	6.5.2	131	1	TNT_NoThink_CSm	fixation	0	5	1500	0	0	1	1495	1	+	-10	0	0	0	0	0	0
2022-07-09	14:01:15	1	4	1	6.5.2	131	2	TNT_NoThink_CSm	NoThink	0	5	0	0	0	0	1000	1	DON'T THINK	-16	0	0	0	0	0	0
2022-07-09	14:01:15	1	4	1	6.5.2	131	3	TNT_NoThink_CSm	TNT_NoThink_CSm	0	5	0	0	0	0	3000	5	Cue13.jpg	-16	0	0	0	0	0	0
2022-07-09	14:01:15	1	4	1	6.5.2	131	4	TNT_NoThink_CSm	Intrusion	0	1000	3000	0	2	1	1985	1	How <b>often</b> did you <b>think</b> about the <b>scene</b>?   <center><br><b>NEVER (1)    BRIEFLY (2)   OFTEN (3) </b>	-16	0	0	0	0	0	0
2022-07-09	14:01:15	1	4	1	6.5.2	132	1	TNT_NoThink_CSm	fixation	0	5	1500	0	0	1	1495	1	+	-11	0	0	0	0	0	0
2022-07-09	14:01:15	1	4	1	6.5.2	132	2	TNT_NoThink_CSm	NoThink	0	5	0	0	0	0	1000	1	DON'T THINK	-11	0	0	0	0	0	0
2022-07-09	14:01:15	1	4	1	6.5.2	132	3	TNT_NoThink_CSm	TNT_NoThink_CSm	0	5	0	0	0	0	3000	2	Cue22.jpg	-16	0	0	0	0	0	0
2022-07-09	14:01:15	1	4	1	6.5.2	132	4	TNT_NoThink_CSm	Intrusion	0	1500	3000	0	2	1	532	1	How <b>often</b> did you <b>think</b> about the <b>scene</b>?   <center><br><b>NEVER (1)    BRIEFLY (2)   OFTEN (3) </b>	-16	0	0	0	0	0	0
2022-07-09	14:01:15	1	4	1	6.5.2	133	1	TNT_Object_CSm	fixation	0	5	1000	0	0	1	995	1	+	-11	0	0	0	0	0	0
2022-07-09	14:01:15	1	4	1	6.5.2	133	2	TNT_Object_CSm	Passive	0	5	0	0	0	0	1000	1	VIEW	-11	0	0	0	0	0	0
2022-07-09	14:01:15	1	4	1	6.5.2	133	3	TNT_Object_CSm	TNT_Object_CSm	0	1500	0	0	0	0	3000	3	Object7.jpg	-16	0	0	0	0	0	0
2022-07-09	14:01:15	1	4	1	6.5.2	134	1	TNT_NoThink_CSm	fixation	0	5	500	0	0	1	495	1	+	-16	0	0	0	0	0	0
2022-07-09	14:01:15	1	4	1	6.5.2	134	2	TNT_NoThink_CSm	NoThink	0	5	0	0	0	0	1000	1	DON'T THINK	-16	0	0	0	0	0	0
2022-07-09	14:01:15	1	4	1	6.5.2	134	3	TNT_NoThink_CSm	TNT_NoThink_CSm	0	5	0	0	0	0	3000	6	Cue29.jpg	-16	0	0	0	0	0	0
2022-07-09	14:01:15	1	4	1	6.5.2	134	4	TNT_NoThink_CSm	Intrusion	0	500	3000	0	2	1	436	1	How <b>often</b> did you <b>think</b> about the <b>scene</b>?   <center><br><b>NEVER (1)    BRIEFLY (2)   OFTEN (3) </b>	-16	0	0	0	0	0	0
2022-07-09	14:01:15	1	4	1	6.5.2	135	1	TNT_Object_CSp	fixation	0	5	1000	0	0	1	995	1	+	-10	0	0	0	0	0	0
2022-07-09	14:01:15	1	4	1	6.5.2	135	2	TNT_Object_CSp	Passive	0	5	0	0	0	0	1000	1	VIEW	-16	0	0	0	0	0	0
2022-07-09	14:01:15	1	4	1	6.5.2	135	3	TNT_Object_CSp	TNT_Object_CSp	0	500	0	0	0	0	3000	4	Object6.jpg	-16	0	0	0	0	0	0
2022-07-09	14:01:15	1	4	1	6.5.2	136	1	TNT_Object_CSm	fixation	0	5	500	0	0	1	495	1	+	-10	0	0	0	0	0	0
2022-07-09	14:01:15	1	4	1	6.5.2	136	2	TNT_Object_CSm	Passive	0	5	0	0	0	0	1000	1	VIEW	-16	0	0	0	0	0	0
2022-07-09	14:01:15	1	4	1	6.5.2	136	3	TNT_Object_CSm	TNT_Object_CSm	0	500	0	0	0	0	3000	1	Object4.jpg	-16	0	0	0	0	0	0
