date	time	group	subject	session	build	blocknum	trialnum	blockcode	trialcode	pretrialpause	posttrialpause	trialduration	trialtimeout	response	correct	latency	stimulusnumber1	stimulusitem1	stimulusonset1	stimulusnumber2	stimulusitem2	stimulusonset2	stimulusnumber3	stimulusitem3	stimulusonset3
2022-07-10	19:58:12	1	5	1	6.5.2	1	1	Reminder_Objects_CSp	fixation	0	5	500	0	0	1	495	1	+	-9	0	0	0	0	0	0
2022-07-10	19:58:12	1	5	1	6.5.2	1	2	Reminder_Objects_CSp	Objects_CSp	0	5	0	0	0	0	4000	4	Object6.jpg	-16	0	0	0	0	0	0
2022-07-10	19:58:12	1	5	1	6.5.2	1	3	Reminder_Objects_CSp	expectancy_object	0	1500	0	0	0	0	20234	1	When you saw the <b>object</b>,   to what <b>degree</b> did you expect the <b>unpleasant sound to occur</b>?	43	0	0	0	0	0	0
2022-07-10	19:58:12	1	5	1	6.5.2	2	1	Reminder_Objects_CSp	fixation	0	5	1500	0	0	1	1495	1	+	-11	0	0	0	0	0	0
2022-07-10	19:58:12	1	5	1	6.5.2	2	2	Reminder_Objects_CSp	Objects_CSp	0	5	0	0	0	0	4000	2	Object5.jpg	-16	0	0	0	0	0	0
2022-07-10	19:58:12	1	5	1	6.5.2	2	3	Reminder_Objects_CSp	expectancy_object	0	1000	0	0	50	0	2265	1	When you saw the <b>object</b>,   to what <b>degree</b> did you expect the <b>unpleasant sound to occur</b>?	-15	0	0	0	0	0	0
2022-07-10	19:58:12	1	5	1	6.5.2	3	1	Reminder_NoThink_CSm	fixation	0	5	1000	0	0	1	995	1	+	-11	0	0	0	0	0	0
2022-07-10	19:58:12	1	5	1	6.5.2	3	2	Reminder_NoThink_CSm	NoThink_CSm	0	5	0	0	0	0	4000	1	+	-12	1	Cue7.jpg	-12	1	Target7.jpg	-12
2022-07-10	19:58:12	1	5	1	6.5.2	3	3	Reminder_NoThink_CSm	valence	0	5	0	0	100	0	14386	1	I found these images to be...	-2	0	0	0	0	0	0
2022-07-10	19:58:12	1	5	1	6.5.2	3	4	Reminder_NoThink_CSm	expectancy	0	500	0	0	39	0	14591	1	When you saw the <b>object-scene</b>,   to what <b>degree</b> did you expect the <b>unpleasant sound to occur</b>?	-3	0	0	0	0	0	0
2022-07-10	19:58:12	1	5	1	6.5.2	4	1	Reminder_Think_CSm	fixation	0	5	500	0	0	1	495	1	+	-16	0	0	0	0	0	0
2022-07-10	19:58:12	1	5	1	6.5.2	4	2	Reminder_Think_CSm	Think_CSm	0	5	0	0	0	0	4000	1	+	-9	1	Cue33.jpg	-9	1	Target33.jpg	-9
2022-07-10	19:58:12	1	5	1	6.5.2	4	3	Reminder_Think_CSm	valence	0	5	0	0	1	0	4639	1	I found these images to be...	-7	0	0	0	0	0	0
2022-07-10	19:58:12	1	5	1	6.5.2	4	4	Reminder_Think_CSm	expectancy	0	1000	0	0	79	0	5040	1	When you saw the <b>object-scene</b>,   to what <b>degree</b> did you expect the <b>unpleasant sound to occur</b>?	-4	0	0	0	0	0	0
2022-07-10	19:58:12	1	5	1	6.5.2	5	1	Reminder_Think_CSp	fixation	0	5	1500	0	0	1	1495	1	+	-11	0	0	0	0	0	0
2022-07-10	19:58:12	1	5	1	6.5.2	5	2	Reminder_Think_CSp	Think_CSp	0	5	0	0	0	0	4000	1	+	-10	3	Cue12.jpg	-10	3	Target12.jpg	-10
2022-07-10	19:58:12	1	5	1	6.5.2	5	3	Reminder_Think_CSp	valence	0	5	0	0	50	0	1236	1	I found these images to be...	-15	0	0	0	0	0	0
2022-07-10	19:58:12	1	5	1	6.5.2	5	4	Reminder_Think_CSp	expectancy	0	1500	0	0	57	0	3687	1	When you saw the <b>object-scene</b>,   to what <b>degree</b> did you expect the <b>unpleasant sound to occur</b>?	-2	0	0	0	0	0	0
2022-07-10	19:58:12	1	5	1	6.5.2	6	1	PracticeItems_NoThink	fixation	0	5	1000	0	0	1	995	1	+	-10	0	0	0	0	0	0
2022-07-10	19:58:12	1	5	1	6.5.2	6	2	PracticeItems_NoThink	PracticeItems_NoThink	0	5	0	0	0	0	4000	1	+	-16	2	Cue40.jpg	-16	2	Target40.jpg	-16
2022-07-10	19:58:12	1	5	1	6.5.2	6	3	PracticeItems_NoThink	valence	0	5	0	0	81	0	6443	1	I found these images to be...	-15	0	0	0	0	0	0
2022-07-10	19:58:12	1	5	1	6.5.2	6	4	PracticeItems_NoThink	expectancy	0	1500	0	0	40	0	3350	1	When you saw the <b>object-scene</b>,   to what <b>degree</b> did you expect the <b>unpleasant sound to occur</b>?	-3	0	0	0	0	0	0
2022-07-10	19:58:12	1	5	1	6.5.2	7	1	PracticeItems_Think	fixation	0	5	500	0	0	1	495	1	+	-11	0	0	0	0	0	0
2022-07-10	19:58:12	1	5	1	6.5.2	7	2	PracticeItems_Think	PracticeItems_Think	0	5	0	0	0	0	4000	1	+	-12	1	Cue37.jpg	-12	1	Target37.jpg	-12
2022-07-10	19:58:12	1	5	1	6.5.2	7	3	PracticeItems_Think	valence	0	5	0	0	63	0	3117	1	I found these images to be...	-5	0	0	0	0	0	0
2022-07-10	19:58:12	1	5	1	6.5.2	7	4	PracticeItems_Think	expectancy	0	1000	0	0	41	0	1672	1	When you saw the <b>object-scene</b>,   to what <b>degree</b> did you expect the <b>unpleasant sound to occur</b>?	-4	0	0	0	0	0	0
2022-07-10	19:58:12	1	5	1	6.5.2	8	1	Reminder_NoThink_CSp	fixation	0	5	1500	0	0	1	1495	1	+	-11	0	0	0	0	0	0
2022-07-10	19:58:12	1	5	1	6.5.2	8	2	Reminder_NoThink_CSp	NoThink_CSp	0	5	0	0	0	0	4000	1	+	-10	1	Cue8.jpg	-10	1	Target8.jpg	-10
2022-07-10	19:58:12	1	5	1	6.5.2	8	3	Reminder_NoThink_CSp	valence	0	5	0	0	17	0	2765	1	I found these images to be...	-16	0	0	0	0	0	0
2022-07-10	19:58:12	1	5	1	6.5.2	8	4	Reminder_NoThink_CSp	expectancy	0	500	0	0	41	0	2411	1	When you saw the <b>object-scene</b>,   to what <b>degree</b> did you expect the <b>unpleasant sound to occur</b>?	-1	0	0	0	0	0	0
2022-07-10	19:58:12	1	5	1	6.5.2	9	1	Reminder_NoThink_CSm	fixation	0	5	1000	0	0	1	995	1	+	-10	0	0	0	0	0	0
2022-07-10	19:58:12	1	5	1	6.5.2	9	2	Reminder_NoThink_CSm	NoThink_CSm	0	5	0	0	0	0	4000	1	+	-12	5	Cue14.jpg	-12	5	Target14.jpg	-12
2022-07-10	19:58:12	1	5	1	6.5.2	9	3	Reminder_NoThink_CSm	valence	0	5	0	0	24	0	4460	1	I found these images to be...	-16	0	0	0	0	0	0
2022-07-10	19:58:12	1	5	1	6.5.2	9	4	Reminder_NoThink_CSm	expectancy	0	1000	0	0	17	0	2206	1	When you saw the <b>object-scene</b>,   to what <b>degree</b> did you expect the <b>unpleasant sound to occur</b>?	-1	0	0	0	0	0	0
2022-07-10	19:58:12	1	5	1	6.5.2	10	1	Reminder_Objects_CSm	fixation	0	5	1500	0	0	1	1495	1	+	-10	0	0	0	0	0	0
2022-07-10	19:58:12	1	5	1	6.5.2	10	2	Reminder_Objects_CSm	Objects_CSm	0	5	0	0	0	0	4000	1	Object1.jpg	-16	0	0	0	0	0	0
2022-07-10	19:58:12	1	5	1	6.5.2	10	3	Reminder_Objects_CSm	expectancy_object	0	500	0	0	62	0	2399	1	When you saw the <b>object</b>,   to what <b>degree</b> did you expect the <b>unpleasant sound to occur</b>?	-15	0	0	0	0	0	0
2022-07-10	19:58:12	1	5	1	6.5.2	11	1	Reminder_Baseline_CSp	fixation	0	5	500	0	0	1	495	1	+	-10	0	0	0	0	0	0
2022-07-10	19:58:12	1	5	1	6.5.2	11	2	Reminder_Baseline_CSp	Baseline_CSp	0	5	0	0	0	0	4000	1	+	-12	3	Cue29.jpg	-12	3	Target29.jpg	-12
2022-07-10	19:58:12	1	5	1	6.5.2	11	3	Reminder_Baseline_CSp	valence	0	5	0	0	16	0	4240	1	I found these images to be...	-8	0	0	0	0	0	0
2022-07-10	19:58:12	1	5	1	6.5.2	11	4	Reminder_Baseline_CSp	expectancy	0	1500	0	0	43	0	3350	1	When you saw the <b>object-scene</b>,   to what <b>degree</b> did you expect the <b>unpleasant sound to occur</b>?	-4	0	0	0	0	0	0
2022-07-10	19:58:12	1	5	1	6.5.2	12	1	Reminder_Baseline_CSm	fixation	0	5	1000	0	0	1	995	1	+	-10	0	0	0	0	0	0
2022-07-10	19:58:12	1	5	1	6.5.2	12	2	Reminder_Baseline_CSm	Baseline_CSm	0	5	0	0	0	0	4000	1	+	-10	2	Cue4.jpg	-10	2	Target4.jpg	-10
2022-07-10	19:58:12	1	5	1	6.5.2	12	3	Reminder_Baseline_CSm	valence	0	5	0	0	50	0	2782	1	I found these images to be...	-15	0	0	0	0	0	0
2022-07-10	19:58:12	1	5	1	6.5.2	12	4	Reminder_Baseline_CSm	expectancy	0	500	0	0	40	0	1728	1	When you saw the <b>object-scene</b>,   to what <b>degree</b> did you expect the <b>unpleasant sound to occur</b>?	-5	0	0	0	0	0	0
2022-07-10	19:58:12	1	5	1	6.5.2	13	1	Reminder_Objects_CSm	fixation	0	5	1500	0	0	1	1495	1	+	-10	0	0	0	0	0	0
2022-07-10	19:58:12	1	5	1	6.5.2	13	2	Reminder_Objects_CSm	Objects_CSm	0	5	0	0	0	0	4000	4	Object2.jpg	-11	0	0	0	0	0	0
2022-07-10	19:58:12	1	5	1	6.5.2	13	3	Reminder_Objects_CSm	expectancy_object	0	1500	0	0	41	0	2753	1	When you saw the <b>object</b>,   to what <b>degree</b> did you expect the <b>unpleasant sound to occur</b>?	-15	0	0	0	0	0	0
2022-07-10	19:58:12	1	5	1	6.5.2	14	1	PracticeItems_Think	fixation	0	5	500	0	0	1	495	1	+	-11	0	0	0	0	0	0
2022-07-10	19:58:12	1	5	1	6.5.2	14	2	PracticeItems_Think	PracticeItems_Think	0	5	0	0	0	0	4000	1	+	-12	2	Cue38.jpg	-12	2	Target38.jpg	-12
2022-07-10	19:58:12	1	5	1	6.5.2	14	3	PracticeItems_Think	valence	0	5	0	0	30	0	6329	1	I found these images to be...	-15	0	0	0	0	0	0
2022-07-10	19:58:12	1	5	1	6.5.2	14	4	PracticeItems_Think	expectancy	0	1000	0	0	61	0	4340	1	When you saw the <b>object-scene</b>,   to what <b>degree</b> did you expect the <b>unpleasant sound to occur</b>?	-3	0	0	0	0	0	0
2022-07-10	19:58:12	1	5	1	6.5.2	15	1	Reminder_Objects_CSm	fixation	0	5	1000	0	0	1	995	1	+	-11	0	0	0	0	0	0
2022-07-10	19:58:12	1	5	1	6.5.2	15	2	Reminder_Objects_CSm	Objects_CSm	0	5	0	0	0	0	4000	2	Object7.jpg	-16	0	0	0	0	0	0
2022-07-10	19:58:12	1	5	1	6.5.2	15	3	Reminder_Objects_CSm	expectancy_object	0	500	0	0	60	0	10379	1	When you saw the <b>object</b>,   to what <b>degree</b> did you expect the <b>unpleasant sound to occur</b>?	-15	0	0	0	0	0	0
2022-07-10	19:58:12	1	5	1	6.5.2	16	1	Reminder_Baseline_CSm	fixation	0	5	1000	0	0	1	995	1	+	-10	0	0	0	0	0	0
2022-07-10	19:58:12	1	5	1	6.5.2	16	2	Reminder_Baseline_CSm	Baseline_CSm	0	5	0	0	0	0	4000	1	+	-9	5	Cue16.jpg	-9	5	Target16.jpg	-9
2022-07-10	19:58:12	1	5	1	6.5.2	16	3	Reminder_Baseline_CSm	valence	0	5	0	0	50	0	2910	1	I found these images to be...	-5	0	0	0	0	0	0
2022-07-10	19:58:12	1	5	1	6.5.2	16	4	Reminder_Baseline_CSm	expectancy	0	500	0	0	61	0	4410	1	When you saw the <b>object-scene</b>,   to what <b>degree</b> did you expect the <b>unpleasant sound to occur</b>?	-3	0	0	0	0	0	0
2022-07-10	19:58:12	1	5	1	6.5.2	17	1	Reminder_Think_CSp	fixation	0	5	500	0	0	1	495	1	+	-10	0	0	0	0	0	0
2022-07-10	19:58:12	1	5	1	6.5.2	17	2	Reminder_Think_CSp	Think_CSp	0	5	0	0	0	0	4000	1	+	-11	6	Cue10.jpg	-11	6	Target10.jpg	-11
2022-07-10	19:58:12	1	5	1	6.5.2	17	3	Reminder_Think_CSp	valence	0	5	0	0	60	0	8200	1	I found these images to be...	-16	0	0	0	0	0	0
2022-07-10	19:58:12	1	5	1	6.5.2	17	4	Reminder_Think_CSp	expectancy	0	1500	0	0	30	0	3488	1	When you saw the <b>object-scene</b>,   to what <b>degree</b> did you expect the <b>unpleasant sound to occur</b>?	-2	0	0	0	0	0	0
2022-07-10	19:58:12	1	5	1	6.5.2	18	1	Reminder_NoThink_CSp	fixation	0	5	1500	0	0	1	1495	1	+	-16	0	0	0	0	0	0
2022-07-10	19:58:12	1	5	1	6.5.2	18	2	Reminder_NoThink_CSp	NoThink_CSp	0	5	0	0	0	0	4000	1	+	-10	2	Cue9.jpg	-10	2	Target9.jpg	-10
2022-07-10	19:58:12	1	5	1	6.5.2	18	3	Reminder_NoThink_CSp	valence	0	5	0	0	11	0	2736	1	I found these images to be...	-16	0	0	0	0	0	0
2022-07-10	19:58:12	1	5	1	6.5.2	18	4	Reminder_NoThink_CSp	expectancy	0	1000	0	0	90	0	6334	1	When you saw the <b>object-scene</b>,   to what <b>degree</b> did you expect the <b>unpleasant sound to occur</b>?	-3	0	0	0	0	0	0
2022-07-10	19:58:12	1	5	1	6.5.2	19	1	PracticeItems_NoThink	fixation	0	5	500	0	0	1	495	1	+	-11	0	0	0	0	0	0
2022-07-10	19:58:12	1	5	1	6.5.2	19	2	PracticeItems_NoThink	PracticeItems_NoThink	0	5	0	0	0	0	4000	1	+	-16	1	Cue39.jpg	-16	1	Target39.jpg	-16
2022-07-10	19:58:12	1	5	1	6.5.2	19	3	PracticeItems_NoThink	valence	0	5	0	0	79	0	5277	1	I found these images to be...	-15	0	0	0	0	0	0
2022-07-10	19:58:12	1	5	1	6.5.2	19	4	PracticeItems_NoThink	expectancy	0	500	0	0	30	0	2673	1	When you saw the <b>object-scene</b>,   to what <b>degree</b> did you expect the <b>unpleasant sound to occur</b>?	-3	0	0	0	0	0	0
2022-07-10	19:58:12	1	5	1	6.5.2	20	1	Reminder_Think_CSm	fixation	0	5	1500	0	0	1	1495	1	+	-11	0	0	0	0	0	0
2022-07-10	19:58:12	1	5	1	6.5.2	20	2	Reminder_Think_CSm	Think_CSm	0	5	0	0	0	0	4000	1	+	-16	2	Cue24.jpg	-16	2	Target24.jpg	-16
2022-07-10	19:58:12	1	5	1	6.5.2	20	3	Reminder_Think_CSm	valence	0	5	0	0	24	0	2911	1	I found these images to be...	-16	0	0	0	0	0	0
2022-07-10	19:58:12	1	5	1	6.5.2	20	4	Reminder_Think_CSm	expectancy	0	1500	0	0	21	0	2740	1	When you saw the <b>object-scene</b>,   to what <b>degree</b> did you expect the <b>unpleasant sound to occur</b>?	-2	0	0	0	0	0	0
2022-07-10	19:58:12	1	5	1	6.5.2	21	1	Reminder_Think_CSp	fixation	0	5	1000	0	0	1	995	1	+	-10	0	0	0	0	0	0
2022-07-10	19:58:12	1	5	1	6.5.2	21	2	Reminder_Think_CSp	Think_CSp	0	5	0	0	0	0	4000	1	+	-16	4	Cue34.jpg	-16	4	Target34.jpg	-16
2022-07-10	19:58:12	1	5	1	6.5.2	21	3	Reminder_Think_CSp	valence	0	5	0	0	79	0	3461	1	I found these images to be...	-16	0	0	0	0	0	0
2022-07-10	19:58:12	1	5	1	6.5.2	21	4	Reminder_Think_CSp	expectancy	0	500	0	0	20	0	3425	1	When you saw the <b>object-scene</b>,   to what <b>degree</b> did you expect the <b>unpleasant sound to occur</b>?	-3	0	0	0	0	0	0
2022-07-10	19:58:12	1	5	1	6.5.2	22	1	Reminder_Think_CSm	fixation	0	5	1000	0	0	1	995	1	+	-10	0	0	0	0	0	0
2022-07-10	19:58:12	1	5	1	6.5.2	22	2	Reminder_Think_CSm	Think_CSm	0	5	0	0	0	0	4000	1	+	-10	3	Cue13.jpg	-10	3	Target13.jpg	-10
2022-07-10	19:58:12	1	5	1	6.5.2	22	3	Reminder_Think_CSm	valence	0	5	0	0	31	0	3886	1	I found these images to be...	-16	0	0	0	0	0	0
2022-07-10	19:58:12	1	5	1	6.5.2	22	4	Reminder_Think_CSm	expectancy	0	1500	0	0	77	0	3644	1	When you saw the <b>object-scene</b>,   to what <b>degree</b> did you expect the <b>unpleasant sound to occur</b>?	-3	0	0	0	0	0	0
2022-07-10	19:58:12	1	5	1	6.5.2	23	1	Reminder_Baseline_CSm	fixation	0	5	1500	0	0	1	1495	1	+	-11	0	0	0	0	0	0
2022-07-10	19:58:12	1	5	1	6.5.2	23	2	Reminder_Baseline_CSm	Baseline_CSm	0	5	0	0	0	0	4000	1	+	-9	4	Cue17.jpg	-9	4	Target17.jpg	-9
2022-07-10	19:58:12	1	5	1	6.5.2	23	3	Reminder_Baseline_CSm	valence	0	5	0	0	16	0	4514	1	I found these images to be...	-15	0	0	0	0	0	0
2022-07-10	19:58:12	1	5	1	6.5.2	23	4	Reminder_Baseline_CSm	expectancy	0	1000	0	0	72	0	4030	1	When you saw the <b>object-scene</b>,   to what <b>degree</b> did you expect the <b>unpleasant sound to occur</b>?	-2	0	0	0	0	0	0
2022-07-10	19:58:12	1	5	1	6.5.2	24	1	Reminder_Think_CSp	fixation	0	5	500	0	0	1	495	1	+	-11	0	0	0	0	0	0
2022-07-10	19:58:12	1	5	1	6.5.2	24	2	Reminder_Think_CSp	Think_CSp	0	5	0	0	0	0	4000	1	+	-12	5	Cue22.jpg	-12	5	Target22.jpg	-12
2022-07-10	19:58:12	1	5	1	6.5.2	24	3	Reminder_Think_CSp	valence	0	5	0	0	39	0	4568	1	I found these images to be...	-15	0	0	0	0	0	0
2022-07-10	19:58:12	1	5	1	6.5.2	24	4	Reminder_Think_CSp	expectancy	0	500	0	0	67	0	2794	1	When you saw the <b>object-scene</b>,   to what <b>degree</b> did you expect the <b>unpleasant sound to occur</b>?	-2	0	0	0	0	0	0
2022-07-10	19:58:12	1	5	1	6.5.2	25	1	Reminder_Think_CSm	fixation	0	5	500	0	0	1	495	1	+	-10	0	0	0	0	0	0
2022-07-10	19:58:12	1	5	1	6.5.2	25	2	Reminder_Think_CSm	Think_CSm	0	5	0	0	0	0	4000	1	+	-9	6	Cue15.jpg	-9	6	Target15.jpg	-9
2022-07-10	19:58:12	1	5	1	6.5.2	25	3	Reminder_Think_CSm	valence	0	5	0	0	58	0	3037	1	I found these images to be...	-16	0	0	0	0	0	0
2022-07-10	19:58:12	1	5	1	6.5.2	25	4	Reminder_Think_CSm	expectancy	0	1500	0	0	37	0	1240	1	When you saw the <b>object-scene</b>,   to what <b>degree</b> did you expect the <b>unpleasant sound to occur</b>?	-5	0	0	0	0	0	0
2022-07-10	19:58:12	1	5	1	6.5.2	26	1	Reminder_Baseline_CSm	fixation	0	5	1500	0	0	1	1495	1	+	-11	0	0	0	0	0	0
2022-07-10	19:58:12	1	5	1	6.5.2	26	2	Reminder_Baseline_CSm	Baseline_CSm	0	5	0	0	0	0	4000	1	+	-12	1	Cue5.jpg	-12	1	Target5.jpg	-12
2022-07-10	19:58:12	1	5	1	6.5.2	26	3	Reminder_Baseline_CSm	valence	0	5	0	0	28	0	2763	1	I found these images to be...	-16	0	0	0	0	0	0
2022-07-10	19:58:12	1	5	1	6.5.2	26	4	Reminder_Baseline_CSm	expectancy	0	1000	0	0	71	0	2130	1	When you saw the <b>object-scene</b>,   to what <b>degree</b> did you expect the <b>unpleasant sound to occur</b>?	-3	0	0	0	0	0	0
2022-07-10	19:58:12	1	5	1	6.5.2	27	1	Reminder_Baseline_CSp	fixation	0	5	1000	0	0	1	995	1	+	-11	0	0	0	0	0	0
2022-07-10	19:58:12	1	5	1	6.5.2	27	2	Reminder_Baseline_CSp	Baseline_CSp	0	5	0	0	0	0	4000	1	+	-16	5	Cue23.jpg	-16	5	Target23.jpg	-16
2022-07-10	19:58:12	1	5	1	6.5.2	27	3	Reminder_Baseline_CSp	valence	0	5	0	0	58	0	1772	1	I found these images to be...	-15	0	0	0	0	0	0
2022-07-10	19:58:12	1	5	1	6.5.2	27	4	Reminder_Baseline_CSp	expectancy	0	1000	0	0	22	0	3386	1	When you saw the <b>object-scene</b>,   to what <b>degree</b> did you expect the <b>unpleasant sound to occur</b>?	-3	0	0	0	0	0	0
2022-07-10	19:58:12	1	5	1	6.5.2	28	1	Reminder_NoThink_CSp	fixation	0	5	1500	0	0	1	1495	1	+	-11	0	0	0	0	0	0
2022-07-10	19:58:12	1	5	1	6.5.2	28	2	Reminder_NoThink_CSp	NoThink_CSp	0	5	0	0	0	0	4000	1	+	-12	3	Cue1.jpg	-12	3	Target1.jpg	-12
2022-07-10	19:58:12	1	5	1	6.5.2	28	3	Reminder_NoThink_CSp	valence	0	5	0	0	40	0	2110	1	I found these images to be...	-15	0	0	0	0	0	0
2022-07-10	19:58:12	1	5	1	6.5.2	28	4	Reminder_NoThink_CSp	expectancy	0	1500	0	0	76	0	1911	1	When you saw the <b>object-scene</b>,   to what <b>degree</b> did you expect the <b>unpleasant sound to occur</b>?	-1	0	0	0	0	0	0
2022-07-10	19:58:12	1	5	1	6.5.2	29	1	Reminder_NoThink_CSm	fixation	0	5	500	0	0	1	495	1	+	-10	0	0	0	0	0	0
2022-07-10	19:58:12	1	5	1	6.5.2	29	2	Reminder_NoThink_CSm	NoThink_CSm	0	5	0	0	0	0	4000	1	+	-9	3	Cue36.jpg	-9	3	Target36.jpg	-9
2022-07-10	19:58:12	1	5	1	6.5.2	29	3	Reminder_NoThink_CSm	valence	0	5	0	0	30	0	3955	1	I found these images to be...	-15	0	0	0	0	0	0
2022-07-10	19:58:12	1	5	1	6.5.2	29	4	Reminder_NoThink_CSm	expectancy	0	500	0	0	59	0	2961	1	When you saw the <b>object-scene</b>,   to what <b>degree</b> did you expect the <b>unpleasant sound to occur</b>?	-2	0	0	0	0	0	0
2022-07-10	19:58:12	1	5	1	6.5.2	30	1	Reminder_Objects_CSm	fixation	0	5	1000	0	0	1	995	1	+	-16	0	0	0	0	0	0
2022-07-10	19:58:12	1	5	1	6.5.2	30	2	Reminder_Objects_CSm	Objects_CSm	0	5	0	0	0	0	4000	3	Object3.jpg	-10	0	0	0	0	0	0
2022-07-10	19:58:12	1	5	1	6.5.2	30	3	Reminder_Objects_CSm	expectancy_object	0	1000	0	0	0	0	7096	1	When you saw the <b>object</b>,   to what <b>degree</b> did you expect the <b>unpleasant sound to occur</b>?	-16	0	0	0	0	0	0
2022-07-10	19:58:12	1	5	1	6.5.2	31	1	Reminder_Baseline_CSp	fixation	0	5	1500	0	0	1	1495	1	+	-11	0	0	0	0	0	0
2022-07-10	19:58:12	1	5	1	6.5.2	31	2	Reminder_Baseline_CSp	Baseline_CSp	0	5	0	0	0	0	4000	1	+	-16	6	Cue11.jpg	-16	6	Target11.jpg	-16
2022-07-10	19:58:12	1	5	1	6.5.2	31	3	Reminder_Baseline_CSp	valence	0	5	0	0	40	0	3301	1	I found these images to be...	-15	0	0	0	0	0	0
2022-07-10	19:58:12	1	5	1	6.5.2	31	4	Reminder_Baseline_CSp	expectancy	0	500	0	0	9	0	3085	1	When you saw the <b>object-scene</b>,   to what <b>degree</b> did you expect the <b>unpleasant sound to occur</b>?	-3	0	0	0	0	0	0
2022-07-10	19:58:12	1	5	1	6.5.2	32	1	Reminder_Baseline_CSm	fixation	0	5	1000	0	0	1	995	1	+	-11	0	0	0	0	0	0
2022-07-10	19:58:12	1	5	1	6.5.2	32	2	Reminder_Baseline_CSm	Baseline_CSm	0	5	0	0	0	0	4000	1	+	-9	6	Cue28.jpg	-9	6	Target28.jpg	-9
2022-07-10	19:58:12	1	5	1	6.5.2	32	3	Reminder_Baseline_CSm	valence	0	5	0	0	60	0	4372	1	I found these images to be...	-16	0	0	0	0	0	0
2022-07-10	19:58:12	1	5	1	6.5.2	32	4	Reminder_Baseline_CSm	expectancy	0	1500	0	0	29	0	2191	1	When you saw the <b>object-scene</b>,   to what <b>degree</b> did you expect the <b>unpleasant sound to occur</b>?	-2	0	0	0	0	0	0
2022-07-10	19:58:12	1	5	1	6.5.2	33	1	Reminder_Baseline_CSp	fixation	0	5	500	0	0	1	495	1	+	-10	0	0	0	0	0	0
2022-07-10	19:58:12	1	5	1	6.5.2	33	2	Reminder_Baseline_CSp	Baseline_CSp	0	5	0	0	0	0	4000	1	+	-16	1	Cue27.jpg	-16	1	Target27.jpg	-16
2022-07-10	19:58:12	1	5	1	6.5.2	33	3	Reminder_Baseline_CSp	valence	0	5	0	0	71	0	2646	1	I found these images to be...	-15	0	0	0	0	0	0
2022-07-10	19:58:12	1	5	1	6.5.2	33	4	Reminder_Baseline_CSp	expectancy	0	1000	0	0	40	0	2406	1	When you saw the <b>object-scene</b>,   to what <b>degree</b> did you expect the <b>unpleasant sound to occur</b>?	-2	0	0	0	0	0	0
2022-07-10	19:58:12	1	5	1	6.5.2	34	1	Reminder_NoThink_CSp	fixation	0	5	1500	0	0	1	1495	1	+	-11	0	0	0	0	0	0
2022-07-10	19:58:12	1	5	1	6.5.2	34	2	Reminder_NoThink_CSp	NoThink_CSp	0	5	0	0	0	0	4000	1	+	-16	4	Cue18.jpg	-16	4	Target18.jpg	-16
2022-07-10	19:58:12	1	5	1	6.5.2	34	3	Reminder_NoThink_CSp	valence	0	5	0	0	29	0	2873	1	I found these images to be...	-15	0	0	0	0	0	0
2022-07-10	19:58:12	1	5	1	6.5.2	34	4	Reminder_NoThink_CSp	expectancy	0	500	0	0	80	0	2169	1	When you saw the <b>object-scene</b>,   to what <b>degree</b> did you expect the <b>unpleasant sound to occur</b>?	-5	0	0	0	0	0	0
2022-07-10	19:58:12	1	5	1	6.5.2	35	1	Reminder_Think_CSm	fixation	0	5	500	0	0	1	495	1	+	-10	0	0	0	0	0	0
2022-07-10	19:58:12	1	5	1	6.5.2	35	2	Reminder_Think_CSm	Think_CSm	0	5	0	0	0	0	4000	1	+	-16	4	Cue21.jpg	-16	4	Target21.jpg	-16
2022-07-10	19:58:12	1	5	1	6.5.2	35	3	Reminder_Think_CSm	valence	0	5	0	0	50	0	1893	1	I found these images to be...	-16	0	0	0	0	0	0
2022-07-10	19:58:12	1	5	1	6.5.2	35	4	Reminder_Think_CSm	expectancy	0	1500	0	0	50	0	1654	1	When you saw the <b>object-scene</b>,   to what <b>degree</b> did you expect the <b>unpleasant sound to occur</b>?	-2	0	0	0	0	0	0
2022-07-10	19:58:12	1	5	1	6.5.2	36	1	Reminder_NoThink_CSp	fixation	0	5	1000	0	0	1	995	1	+	-10	0	0	0	0	0	0
2022-07-10	19:58:12	1	5	1	6.5.2	36	2	Reminder_NoThink_CSp	NoThink_CSp	0	5	0	0	0	0	4000	1	+	-10	6	Cue2.jpg	-10	6	Target2.jpg	-10
2022-07-10	19:58:12	1	5	1	6.5.2	36	3	Reminder_NoThink_CSp	valence	0	5	0	0	0	0	4885	1	I found these images to be...	-16	0	0	0	0	0	0
2022-07-10	19:58:12	1	5	1	6.5.2	36	4	Reminder_NoThink_CSp	expectancy	0	1000	0	0	100	0	4635	1	When you saw the <b>object-scene</b>,   to what <b>degree</b> did you expect the <b>unpleasant sound to occur</b>?	-1	0	0	0	0	0	0
2022-07-10	19:58:12	1	5	1	6.5.2	37	1	Reminder_NoThink_CSm	fixation	0	5	1500	0	0	1	1495	1	+	-11	0	0	0	0	0	0
2022-07-10	19:58:12	1	5	1	6.5.2	37	2	Reminder_NoThink_CSm	NoThink_CSm	0	5	0	0	0	0	4000	1	+	-10	2	Cue35.jpg	-10	2	Target35.jpg	-10
2022-07-10	19:58:12	1	5	1	6.5.2	37	3	Reminder_NoThink_CSm	valence	0	5	0	0	64	0	2674	1	I found these images to be...	-16	0	0	0	0	0	0
2022-07-10	19:58:12	1	5	1	6.5.2	37	4	Reminder_NoThink_CSm	expectancy	0	500	0	0	33	0	2458	1	When you saw the <b>object-scene</b>,   to what <b>degree</b> did you expect the <b>unpleasant sound to occur</b>?	-8	0	0	0	0	0	0
2022-07-10	19:58:12	1	5	1	6.5.2	38	1	Reminder_NoThink_CSm	fixation	0	5	1000	0	0	1	995	1	+	-11	0	0	0	0	0	0
2022-07-10	19:58:12	1	5	1	6.5.2	38	2	Reminder_NoThink_CSm	NoThink_CSm	0	5	0	0	0	0	4000	1	+	-16	6	Cue3.jpg	-16	6	Target3.jpg	-16
2022-07-10	19:58:12	1	5	1	6.5.2	38	3	Reminder_NoThink_CSm	valence	0	5	0	0	67	0	4565	1	I found these images to be...	-15	0	0	0	0	0	0
2022-07-10	19:58:12	1	5	1	6.5.2	38	4	Reminder_NoThink_CSm	expectancy	0	1500	0	0	31	0	2263	1	When you saw the <b>object-scene</b>,   to what <b>degree</b> did you expect the <b>unpleasant sound to occur</b>?	-3	0	0	0	0	0	0
2022-07-10	19:58:12	1	5	1	6.5.2	39	1	Reminder_Baseline_CSp	fixation	0	5	500	0	0	1	495	1	+	-11	0	0	0	0	0	0
2022-07-10	19:58:12	1	5	1	6.5.2	39	2	Reminder_Baseline_CSp	Baseline_CSp	0	5	0	0	0	0	4000	1	+	-9	2	Cue30.jpg	-9	2	Target30.jpg	-9
2022-07-10	19:58:12	1	5	1	6.5.2	39	3	Reminder_Baseline_CSp	valence	0	5	0	0	20	0	10665	1	I found these images to be...	-15	0	0	0	0	0	0
2022-07-10	19:58:12	1	5	1	6.5.2	39	4	Reminder_Baseline_CSp	expectancy	0	1000	0	0	69	0	5129	1	When you saw the <b>object-scene</b>,   to what <b>degree</b> did you expect the <b>unpleasant sound to occur</b>?	-3	0	0	0	0	0	0
2022-07-10	19:58:12	1	5	1	6.5.2	40	1	Reminder_NoThink_CSm	fixation	0	5	500	0	0	1	495	1	+	-11	0	0	0	0	0	0
2022-07-10	19:58:12	1	5	1	6.5.2	40	2	Reminder_NoThink_CSm	NoThink_CSm	0	5	0	0	0	0	4000	1	+	-16	4	Cue25.jpg	-16	4	Target25.jpg	-16
2022-07-10	19:58:12	1	5	1	6.5.2	40	3	Reminder_NoThink_CSm	valence	0	5	0	0	81	0	9376	1	I found these images to be...	-15	0	0	0	0	0	0
2022-07-10	19:58:12	1	5	1	6.5.2	40	4	Reminder_NoThink_CSm	expectancy	0	1500	0	0	79	0	2163	1	When you saw the <b>object-scene</b>,   to what <b>degree</b> did you expect the <b>unpleasant sound to occur</b>?	-2	0	0	0	0	0	0
2022-07-10	19:58:12	1	5	1	6.5.2	41	1	Reminder_Objects_CSp	fixation	0	5	1000	0	0	1	995	1	+	-11	0	0	0	0	0	0
2022-07-10	19:58:12	1	5	1	6.5.2	41	2	Reminder_Objects_CSp	Objects_CSp	0	5	0	0	0	0	4000	3	Object4.jpg	-16	0	0	0	0	0	0
2022-07-10	19:58:12	1	5	1	6.5.2	41	3	Reminder_Objects_CSp	expectancy_object	0	1500	0	0	0	0	3833	1	When you saw the <b>object</b>,   to what <b>degree</b> did you expect the <b>unpleasant sound to occur</b>?	-16	0	0	0	0	0	0
2022-07-10	19:58:12	1	5	1	6.5.2	42	1	Reminder_NoThink_CSp	fixation	0	5	1500	0	0	1	1495	1	+	-10	0	0	0	0	0	0
2022-07-10	19:58:12	1	5	1	6.5.2	42	2	Reminder_NoThink_CSp	NoThink_CSp	0	5	0	0	0	0	4000	1	+	-16	5	Cue19.jpg	-16	5	Target19.jpg	-16
2022-07-10	19:58:12	1	5	1	6.5.2	42	3	Reminder_NoThink_CSp	valence	0	5	0	0	30	0	7431	1	I found these images to be...	-15	0	0	0	0	0	0
2022-07-10	19:58:12	1	5	1	6.5.2	42	4	Reminder_NoThink_CSp	expectancy	0	500	0	0	73	0	2529	1	When you saw the <b>object-scene</b>,   to what <b>degree</b> did you expect the <b>unpleasant sound to occur</b>?	-4	0	0	0	0	0	0
2022-07-10	19:58:12	1	5	1	6.5.2	43	1	Reminder_Baseline_CSm	fixation	0	5	1000	0	0	1	995	1	+	-10	0	0	0	0	0	0
2022-07-10	19:58:12	1	5	1	6.5.2	43	2	Reminder_Baseline_CSm	Baseline_CSm	0	5	0	0	0	0	4000	1	+	-16	3	Cue31.jpg	-16	3	Target31.jpg	-16
2022-07-10	19:58:12	1	5	1	6.5.2	43	3	Reminder_Baseline_CSm	valence	0	5	0	0	70	0	5885	1	I found these images to be...	-15	0	0	0	0	0	0
2022-07-10	19:58:12	1	5	1	6.5.2	43	4	Reminder_Baseline_CSm	expectancy	0	1000	0	0	40	0	7197	1	When you saw the <b>object-scene</b>,   to what <b>degree</b> did you expect the <b>unpleasant sound to occur</b>?	-2	0	0	0	0	0	0
2022-07-10	19:58:12	1	5	1	6.5.2	44	1	Reminder_Baseline_CSp	fixation	0	5	500	0	0	1	495	1	+	-11	0	0	0	0	0	0
2022-07-10	19:58:12	1	5	1	6.5.2	44	2	Reminder_Baseline_CSp	Baseline_CSp	0	5	0	0	0	0	4000	1	+	-16	4	Cue20.jpg	-16	4	Target20.jpg	-16
2022-07-10	19:58:12	1	5	1	6.5.2	44	3	Reminder_Baseline_CSp	valence	0	5	0	0	40	0	4416	1	I found these images to be...	-16	0	0	0	0	0	0
2022-07-10	19:58:12	1	5	1	6.5.2	44	4	Reminder_Baseline_CSp	expectancy	0	1000	0	0	59	0	2476	1	When you saw the <b>object-scene</b>,   to what <b>degree</b> did you expect the <b>unpleasant sound to occur</b>?	-3	0	0	0	0	0	0
2022-07-10	19:58:12	1	5	1	6.5.2	45	1	Reminder_Think_CSp	fixation	0	5	1500	0	0	1	1495	1	+	-10	0	0	0	0	0	0
2022-07-10	19:58:12	1	5	1	6.5.2	45	2	Reminder_Think_CSp	Think_CSp	0	5	0	0	0	0	4000	1	+	-10	1	Cue32.jpg	-10	1	Target32.jpg	-10
2022-07-10	19:58:12	1	5	1	6.5.2	45	3	Reminder_Think_CSp	valence	0	5	0	0	40	0	4726	1	I found these images to be...	-16	0	0	0	0	0	0
2022-07-10	19:58:12	1	5	1	6.5.2	45	4	Reminder_Think_CSp	expectancy	0	1500	0	0	41	0	2027	1	When you saw the <b>object-scene</b>,   to what <b>degree</b> did you expect the <b>unpleasant sound to occur</b>?	-2	0	0	0	0	0	0
2022-07-10	19:58:12	1	5	1	6.5.2	46	1	Reminder_Think_CSp	fixation	0	5	500	0	0	1	495	1	+	-10	0	0	0	0	0	0
2022-07-10	19:58:12	1	5	1	6.5.2	46	2	Reminder_Think_CSp	Think_CSp	0	5	0	0	0	0	4000	1	+	-10	2	Cue26.jpg	-10	2	Target26.jpg	-10
2022-07-10	19:58:12	1	5	1	6.5.2	46	3	Reminder_Think_CSp	valence	0	5	0	0	61	0	3092	1	I found these images to be...	-15	0	0	0	0	0	0
2022-07-10	19:58:12	1	5	1	6.5.2	46	4	Reminder_Think_CSp	expectancy	0	500	0	0	80	0	2353	1	When you saw the <b>object-scene</b>,   to what <b>degree</b> did you expect the <b>unpleasant sound to occur</b>?	-3	0	0	0	0	0	0
2022-07-10	19:58:12	1	5	1	6.5.2	47	1	Reminder_Think_CSm	fixation	0	5	1000	0	0	1	995	1	+	-10	0	0	0	0	0	0
2022-07-10	19:58:12	1	5	1	6.5.2	47	2	Reminder_Think_CSm	Think_CSm	0	5	0	0	0	0	4000	1	+	-10	5	Cue6.jpg	-10	5	Target6.jpg	-10
2022-07-10	19:58:12	1	5	1	6.5.2	47	3	Reminder_Think_CSm	valence	0	5	0	0	0	0	6695	1	I found these images to be...	-15	0	0	0	0	0	0
2022-07-10	19:58:12	1	5	1	6.5.2	47	4	Reminder_Think_CSm	expectancy	0	1000	0	0	90	0	3435	1	When you saw the <b>object-scene</b>,   to what <b>degree</b> did you expect the <b>unpleasant sound to occur</b>?	-2	0	0	0	0	0	0
2022-07-10	19:58:12	1	5	1	6.5.2	48	1	Reminder_Objects_CSp	fixation	0	5	1500	0	0	1	1495	1	+	-10	0	0	0	0	0	0
2022-07-10	19:58:12	1	5	1	6.5.2	48	2	Reminder_Objects_CSp	Objects_CSp	0	5	0	0	0	0	4000	1	Object8.jpg	-16	0	0	0	0	0	0
2022-07-10	19:58:12	1	5	1	6.5.2	48	3	Reminder_Objects_CSp	expectancy_object	0	500	0	0	50	0	423	1	When you saw the <b>object</b>,   to what <b>degree</b> did you expect the <b>unpleasant sound to occur</b>?	-15	0	0	0	0	0	0
2022-07-10	19:58:12	1	5	1	6.5.2	1	1	Practice_Think	fixation	0	5	1500	0	0	1	1495	1	+	-11	0	0	0	0	0	0
2022-07-10	19:58:12	1	5	1	6.5.2	1	2	Practice_Think	Think	0	5	0	0	0	0	1000	1	THINK	-13	0	0	0	0	0	0
2022-07-10	19:58:12	1	5	1	6.5.2	1	3	Practice_Think	ThinkCue	0	5	0	0	0	1	6000	1	Cue37.jpg	-16	0	0	0	0	0	0
2022-07-10	19:58:12	1	5	1	6.5.2	1	4	Practice_Think	Intrusion	0	1000	3000	0	0	0	2000	1	How <b>often</b> did you <b>think</b> about the <b>scene</b>?   <center><br><b>NEVER (1)    BRIEFLY (2)   OFTEN (3) </b>	-13	0	0	0	0	0	0
2022-07-10	19:58:12	1	5	1	6.5.2	2	1	Practice_Think	fixation	0	5	500	0	0	1	495	1	+	-10	0	0	0	0	0	0
2022-07-10	19:58:12	1	5	1	6.5.2	2	2	Practice_Think	Think	0	5	0	0	0	0	1000	1	THINK	-16	0	0	0	0	0	0
2022-07-10	19:58:12	1	5	1	6.5.2	2	3	Practice_Think	ThinkCue	0	5	0	0	0	1	6000	2	Cue38.jpg	-16	0	0	0	0	0	0
2022-07-10	19:58:12	1	5	1	6.5.2	2	4	Practice_Think	Intrusion	0	500	3000	0	0	0	2500	1	How <b>often</b> did you <b>think</b> about the <b>scene</b>?   <center><br><b>NEVER (1)    BRIEFLY (2)   OFTEN (3) </b>	-13	0	0	0	0	0	0
2022-07-10	19:58:12	1	5	1	6.5.2	3	1	Practice_NoThink	fixation	0	5	1000	0	0	1	995	1	+	-10	0	0	0	0	0	0
2022-07-10	19:58:12	1	5	1	6.5.2	3	2	Practice_NoThink	NoThink	0	5	0	0	0	0	1000	1	DON'T THINK	-16	0	0	0	0	0	0
2022-07-10	19:58:12	1	5	1	6.5.2	3	3	Practice_NoThink	NoThinkCue	0	5	0	0	0	1	3000	2	Cue40.jpg	-16	0	0	0	0	0	0
2022-07-10	19:58:12	1	5	1	6.5.2	3	4	Practice_NoThink	Intrusion	0	1500	3000	0	0	0	1500	1	How <b>often</b> did you <b>think</b> about the <b>scene</b>?   <center><br><b>NEVER (1)    BRIEFLY (2)   OFTEN (3) </b>	-16	0	0	0	0	0	0
2022-07-10	19:58:12	1	5	1	6.5.2	4	1	Practice_NoThink	fixation	0	5	1500	0	0	1	1495	1	+	-10	0	0	0	0	0	0
2022-07-10	19:58:12	1	5	1	6.5.2	4	2	Practice_NoThink	NoThink	0	5	0	0	0	0	1000	1	DON'T THINK	-16	0	0	0	0	0	0
2022-07-10	19:58:12	1	5	1	6.5.2	4	3	Practice_NoThink	NoThinkCue	0	5	0	0	0	1	3000	1	Cue39.jpg	-16	0	0	0	0	0	0
2022-07-10	19:58:12	1	5	1	6.5.2	4	4	Practice_NoThink	Intrusion	0	1500	3000	0	0	0	1500	1	How <b>often</b> did you <b>think</b> about the <b>scene</b>?   <center><br><b>NEVER (1)    BRIEFLY (2)   OFTEN (3) </b>	-16	0	0	0	0	0	0
2022-07-10	19:58:12	1	5	1	6.5.2	5	1	Practice_Betweenblocks1	Practice_Betweenblocks1	0	5	0	0	57	1	16094	1	<center><br><br><br><br>This is the end of the first practice round. <br><br>There will be 2 more practice rounds.  <br><br> Please await further instruction from the experimenter.	-10	0	0	0	0	0	0
2022-07-10	19:58:12	1	5	1	6.5.2	6	1	Practice_NoThink	fixation	0	5	500	0	0	1	495	1	+	-11	0	0	0	0	0	0
2022-07-10	19:58:12	1	5	1	6.5.2	6	2	Practice_NoThink	NoThink	0	5	0	0	0	0	1000	1	DON'T THINK	-16	0	0	0	0	0	0
2022-07-10	19:58:12	1	5	1	6.5.2	6	3	Practice_NoThink	NoThinkCue	0	5	0	0	0	1	3000	2	Cue40.jpg	-16	0	0	0	0	0	0
2022-07-10	19:58:12	1	5	1	6.5.2	6	4	Practice_NoThink	Intrusion	0	1000	3000	0	0	0	2000	1	How <b>often</b> did you <b>think</b> about the <b>scene</b>?   <center><br><b>NEVER (1)    BRIEFLY (2)   OFTEN (3) </b>	-16	0	0	0	0	0	0
2022-07-10	19:58:12	1	5	1	6.5.2	7	1	Practice_Think	fixation	0	5	1000	0	0	1	995	1	+	-10	0	0	0	0	0	0
2022-07-10	19:58:12	1	5	1	6.5.2	7	2	Practice_Think	Think	0	5	0	0	0	0	1000	1	THINK	-16	0	0	0	0	0	0
2022-07-10	19:58:12	1	5	1	6.5.2	7	3	Practice_Think	ThinkCue	0	5	0	0	0	1	6000	1	Cue37.jpg	-16	0	0	0	0	0	0
2022-07-10	19:58:12	1	5	1	6.5.2	7	4	Practice_Think	Intrusion	0	500	3000	0	2	1	2124	1	How <b>often</b> did you <b>think</b> about the <b>scene</b>?   <center><br><b>NEVER (1)    BRIEFLY (2)   OFTEN (3) </b>	-16	0	0	0	0	0	0
2022-07-10	19:58:12	1	5	1	6.5.2	8	1	Practice_Think	fixation	0	5	1500	0	0	1	1495	1	+	-10	0	0	0	0	0	0
2022-07-10	19:58:12	1	5	1	6.5.2	8	2	Practice_Think	Think	0	5	0	0	0	0	1000	1	THINK	-16	0	0	0	0	0	0
2022-07-10	19:58:12	1	5	1	6.5.2	8	3	Practice_Think	ThinkCue	0	5	0	0	0	1	6000	2	Cue38.jpg	-16	0	0	0	0	0	0
2022-07-10	19:58:12	1	5	1	6.5.2	8	4	Practice_Think	Intrusion	0	1000	3000	0	3	1	545	1	How <b>often</b> did you <b>think</b> about the <b>scene</b>?   <center><br><b>NEVER (1)    BRIEFLY (2)   OFTEN (3) </b>	-16	0	0	0	0	0	0
2022-07-10	19:58:12	1	5	1	6.5.2	9	1	Practice_NoThink	fixation	0	5	1000	0	0	1	995	1	+	-10	0	0	0	0	0	0
2022-07-10	19:58:12	1	5	1	6.5.2	9	2	Practice_NoThink	NoThink	0	5	0	0	0	0	1000	1	DON'T THINK	-16	0	0	0	0	0	0
2022-07-10	19:58:12	1	5	1	6.5.2	9	3	Practice_NoThink	NoThinkCue	0	5	0	0	0	1	3000	1	Cue39.jpg	-16	0	0	0	0	0	0
2022-07-10	19:58:12	1	5	1	6.5.2	9	4	Practice_NoThink	Intrusion	0	1500	3000	0	2	1	1393	1	How <b>often</b> did you <b>think</b> about the <b>scene</b>?   <center><br><b>NEVER (1)    BRIEFLY (2)   OFTEN (3) </b>	-16	0	0	0	0	0	0
2022-07-10	19:58:12	1	5	1	6.5.2	10	1	Practice_Betweenblocks2	Practice_Betweenblocks2	0	5	0	0	57	1	6716	1	<center><br><br><br><br>This is the end of the second practice round. <br><br>There will be 1 more practice round.  <br><br> Please await further instruction from the experimenter.	-10	0	0	0	0	0	0
2022-07-10	19:58:12	1	5	1	6.5.2	11	1	Practice_Think	fixation	0	5	500	0	0	1	495	1	+	-16	0	0	0	0	0	0
2022-07-10	19:58:12	1	5	1	6.5.2	11	2	Practice_Think	Think	0	5	0	0	0	0	1000	1	THINK	-11	0	0	0	0	0	0
2022-07-10	19:58:12	1	5	1	6.5.2	11	3	Practice_Think	ThinkCue	0	5	0	0	0	1	6000	1	Cue37.jpg	-16	0	0	0	0	0	0
2022-07-10	19:58:12	1	5	1	6.5.2	11	4	Practice_Think	Intrusion	0	500	3000	0	4	1	267	1	How <b>often</b> did you <b>think</b> about the <b>scene</b>?   <center><br><b>NEVER (1)    BRIEFLY (2)   OFTEN (3) </b>	-13	0	0	0	0	0	0
2022-07-10	19:58:12	1	5	1	6.5.2	12	1	Practice_NoThink	fixation	0	5	1000	0	0	1	995	1	+	-10	0	0	0	0	0	0
2022-07-10	19:58:12	1	5	1	6.5.2	12	2	Practice_NoThink	NoThink	0	5	0	0	0	0	1000	1	DON'T THINK	-16	0	0	0	0	0	0
2022-07-10	19:58:12	1	5	1	6.5.2	12	3	Practice_NoThink	NoThinkCue	0	5	0	0	0	1	3000	2	Cue40.jpg	-16	0	0	0	0	0	0
2022-07-10	19:58:12	1	5	1	6.5.2	12	4	Practice_NoThink	Intrusion	0	500	3000	0	3	1	1029	1	How <b>often</b> did you <b>think</b> about the <b>scene</b>?   <center><br><b>NEVER (1)    BRIEFLY (2)   OFTEN (3) </b>	-16	0	0	0	0	0	0
2022-07-10	19:58:12	1	5	1	6.5.2	13	1	Practice_Think	fixation	0	5	1500	0	0	1	1495	1	+	-10	0	0	0	0	0	0
2022-07-10	19:58:12	1	5	1	6.5.2	13	2	Practice_Think	Think	0	5	0	0	0	0	1000	1	THINK	-16	0	0	0	0	0	0
2022-07-10	19:58:12	1	5	1	6.5.2	13	3	Practice_Think	ThinkCue	0	5	0	0	0	1	6000	2	Cue38.jpg	-16	0	0	0	0	0	0
2022-07-10	19:58:12	1	5	1	6.5.2	13	4	Practice_Think	Intrusion	0	1500	3000	0	2	1	1214	1	How <b>often</b> did you <b>think</b> about the <b>scene</b>?   <center><br><b>NEVER (1)    BRIEFLY (2)   OFTEN (3) </b>	-16	0	0	0	0	0	0
2022-07-10	19:58:12	1	5	1	6.5.2	14	1	Practice_NoThink	fixation	0	5	500	0	0	1	495	1	+	-10	0	0	0	0	0	0
2022-07-10	19:58:12	1	5	1	6.5.2	14	2	Practice_NoThink	NoThink	0	5	0	0	0	0	1000	1	DON'T THINK	-16	0	0	0	0	0	0
2022-07-10	19:58:12	1	5	1	6.5.2	14	3	Practice_NoThink	NoThinkCue	0	5	0	0	0	1	3000	1	Cue39.jpg	-16	0	0	0	0	0	0
2022-07-10	19:58:12	1	5	1	6.5.2	14	4	Practice_NoThink	Intrusion	0	1000	3000	0	2	1	472	1	How <b>often</b> did you <b>think</b> about the <b>scene</b>?   <center><br><b>NEVER (1)    BRIEFLY (2)   OFTEN (3) </b>	-16	0	0	0	0	0	0
2022-07-10	19:58:12	1	5	1	6.5.2	1	1	TNT_Object_CSp	fixation	0	5	1000	0	0	1	995	1	+	-10	0	0	0	0	0	0
2022-07-10	19:58:12	1	5	1	6.5.2	1	2	TNT_Object_CSp	Passive	0	5	0	0	0	0	1000	1	VIEW	-16	0	0	0	0	0	0
2022-07-10	19:58:12	1	5	1	6.5.2	1	3	TNT_Object_CSp	TNT_Object_CSp	0	1000	0	0	0	0	3000	2	Object5.jpg	-16	0	0	0	0	0	0
2022-07-10	19:58:12	1	5	1	6.5.2	2	1	TNT_NoThink_CSp	fixation	0	5	1500	0	0	1	1495	1	+	-11	0	0	0	0	0	0
2022-07-10	19:58:12	1	5	1	6.5.2	2	2	TNT_NoThink_CSp	NoThink	0	5	0	0	0	0	1000	1	DON'T THINK	-13	0	0	0	0	0	0
2022-07-10	19:58:12	1	5	1	6.5.2	2	3	TNT_NoThink_CSp	TNT_NoThink_CSp	0	5	0	0	0	0	3000	2	Cue9.jpg	-16	0	0	0	0	0	0
2022-07-10	19:58:12	1	5	1	6.5.2	2	4	TNT_NoThink_CSp	Intrusion	0	1500	3000	0	4	1	681	1	How <b>often</b> did you <b>think</b> about the <b>scene</b>?   <center><br><b>NEVER (1)    BRIEFLY (2)   OFTEN (3) </b>	-16	0	0	0	0	0	0
2022-07-10	19:58:12	1	5	1	6.5.2	3	1	TNT_NoThink_CSp	fixation	0	5	500	0	0	1	495	1	+	-11	0	0	0	0	0	0
2022-07-10	19:58:12	1	5	1	6.5.2	3	2	TNT_NoThink_CSp	NoThink	0	5	0	0	0	0	1000	1	DON'T THINK	-16	0	0	0	0	0	0
2022-07-10	19:58:12	1	5	1	6.5.2	3	3	TNT_NoThink_CSp	TNT_NoThink_CSp	0	5	0	0	0	0	3000	6	Cue2.jpg	-16	0	0	0	0	0	0
2022-07-10	19:58:12	1	5	1	6.5.2	3	4	TNT_NoThink_CSp	Intrusion	0	1000	3000	0	3	1	587	1	How <b>often</b> did you <b>think</b> about the <b>scene</b>?   <center><br><b>NEVER (1)    BRIEFLY (2)   OFTEN (3) </b>	-16	0	0	0	0	0	0
2022-07-10	19:58:12	1	5	1	6.5.2	4	1	TNT_Object_CSp	fixation	0	5	1000	0	0	1	995	1	+	-11	0	0	0	0	0	0
2022-07-10	19:58:12	1	5	1	6.5.2	4	2	TNT_Object_CSp	Passive	0	5	0	0	0	0	1000	1	VIEW	-11	0	0	0	0	0	0
2022-07-10	19:58:12	1	5	1	6.5.2	4	3	TNT_Object_CSp	TNT_Object_CSp	0	500	0	0	0	0	3000	1	Object8.jpg	-16	0	0	0	0	0	0
2022-07-10	19:58:12	1	5	1	6.5.2	5	1	TNT_NoThink_CSm	fixation	0	5	500	0	0	1	495	1	+	-10	0	0	0	0	0	0
2022-07-10	19:58:12	1	5	1	6.5.2	5	2	TNT_NoThink_CSm	NoThink	0	5	0	0	0	0	1000	1	DON'T THINK	-16	0	0	0	0	0	0
2022-07-10	19:58:12	1	5	1	6.5.2	5	3	TNT_NoThink_CSm	TNT_NoThink_CSm	0	5	0	0	0	0	3000	2	Cue35.jpg	-16	0	0	0	0	0	0
2022-07-10	19:58:12	1	5	1	6.5.2	5	4	TNT_NoThink_CSm	Intrusion	0	500	3000	0	4	1	216	1	How <b>often</b> did you <b>think</b> about the <b>scene</b>?   <center><br><b>NEVER (1)    BRIEFLY (2)   OFTEN (3) </b>	-16	0	0	0	0	0	0
2022-07-10	19:58:12	1	5	1	6.5.2	6	1	TNT_NoThink_CSp	fixation	0	5	1500	0	0	1	1495	1	+	-7	0	0	0	0	0	0
2022-07-10	19:58:12	1	5	1	6.5.2	6	2	TNT_NoThink_CSp	NoThink	0	5	0	0	0	0	1000	1	DON'T THINK	-11	0	0	0	0	0	0
2022-07-10	19:58:12	1	5	1	6.5.2	6	3	TNT_NoThink_CSp	TNT_NoThink_CSp	0	5	0	0	0	0	3000	4	Cue18.jpg	-16	0	0	0	0	0	0
2022-07-10	19:58:12	1	5	1	6.5.2	6	4	TNT_NoThink_CSp	Intrusion	0	1000	3000	0	3	1	565	1	How <b>often</b> did you <b>think</b> about the <b>scene</b>?   <center><br><b>NEVER (1)    BRIEFLY (2)   OFTEN (3) </b>	-16	0	0	0	0	0	0
2022-07-10	19:58:12	1	5	1	6.5.2	7	1	TNT_Think_CSm	fixation	0	5	1500	0	0	1	1495	1	+	-10	0	0	0	0	0	0
2022-07-10	19:58:12	1	5	1	6.5.2	7	2	TNT_Think_CSm	Think	0	5	0	0	0	0	1000	1	THINK	-16	0	0	0	0	0	0
2022-07-10	19:58:12	1	5	1	6.5.2	7	3	TNT_Think_CSm	TNT_Think_CSm	0	5	0	0	0	0	6000	2	Cue24.jpg	-16	0	0	0	0	0	0
2022-07-10	19:58:12	1	5	1	6.5.2	7	4	TNT_Think_CSm	Intrusion	0	500	3000	0	4	1	304	1	How <b>often</b> did you <b>think</b> about the <b>scene</b>?   <center><br><b>NEVER (1)    BRIEFLY (2)   OFTEN (3) </b>	-12	0	0	0	0	0	0
2022-07-10	19:58:12	1	5	1	6.5.2	8	1	TNT_Think_CSp	fixation	0	5	1000	0	0	1	995	1	+	-10	0	0	0	0	0	0
2022-07-10	19:58:12	1	5	1	6.5.2	8	2	TNT_Think_CSp	Think	0	5	0	0	0	0	1000	1	THINK	-16	0	0	0	0	0	0
2022-07-10	19:58:12	1	5	1	6.5.2	8	3	TNT_Think_CSp	TNT_Think_CSp	0	5	0	0	0	0	6000	2	Cue26.jpg	-16	0	0	0	0	0	0
2022-07-10	19:58:12	1	5	1	6.5.2	8	4	TNT_Think_CSp	Intrusion	0	1500	3000	0	4	1	800	1	How <b>often</b> did you <b>think</b> about the <b>scene</b>?   <center><br><b>NEVER (1)    BRIEFLY (2)   OFTEN (3) </b>	-13	0	0	0	0	0	0
2022-07-10	19:58:12	1	5	1	6.5.2	9	1	TNT_Object_CSm	fixation	0	5	500	0	0	1	495	1	+	-10	0	0	0	0	0	0
2022-07-10	19:58:12	1	5	1	6.5.2	9	2	TNT_Object_CSm	Passive	0	5	0	0	0	0	1000	1	VIEW	-16	0	0	0	0	0	0
2022-07-10	19:58:12	1	5	1	6.5.2	9	3	TNT_Object_CSm	TNT_Object_CSm	0	1500	0	0	0	0	3000	1	Object1.jpg	-16	0	0	0	0	0	0
2022-07-10	19:58:12	1	5	1	6.5.2	10	1	TNT_Think_CSp	fixation	0	5	1000	0	0	1	995	1	+	-10	0	0	0	0	0	0
2022-07-10	19:58:12	1	5	1	6.5.2	10	2	TNT_Think_CSp	Think	0	5	0	0	0	0	1000	1	THINK	-11	0	0	0	0	0	0
2022-07-10	19:58:12	1	5	1	6.5.2	10	3	TNT_Think_CSp	TNT_Think_CSp	0	5	0	0	0	0	6000	4	Cue34.jpg	-16	0	0	0	0	0	0
2022-07-10	19:58:12	1	5	1	6.5.2	10	4	TNT_Think_CSp	Intrusion	0	1000	3000	0	4	1	586	1	How <b>often</b> did you <b>think</b> about the <b>scene</b>?   <center><br><b>NEVER (1)    BRIEFLY (2)   OFTEN (3) </b>	-16	0	0	0	0	0	0
2022-07-10	19:58:12	1	5	1	6.5.2	11	1	TNT_Object_CSp	fixation	0	5	1500	0	0	1	1495	1	+	-10	0	0	0	0	0	0
2022-07-10	19:58:12	1	5	1	6.5.2	11	2	TNT_Object_CSp	Passive	0	5	0	0	0	0	1000	1	VIEW	-16	0	0	0	0	0	0
2022-07-10	19:58:12	1	5	1	6.5.2	11	3	TNT_Object_CSp	TNT_Object_CSp	0	1500	0	0	0	0	3000	4	Object6.jpg	-16	0	0	0	0	0	0
2022-07-10	19:58:12	1	5	1	6.5.2	12	1	TNT_Object_CSm	fixation	0	5	500	0	0	1	495	1	+	-11	0	0	0	0	0	0
2022-07-10	19:58:12	1	5	1	6.5.2	12	2	TNT_Object_CSm	Passive	0	5	0	0	0	0	1000	1	VIEW	-16	0	0	0	0	0	0
2022-07-10	19:58:12	1	5	1	6.5.2	12	3	TNT_Object_CSm	TNT_Object_CSm	0	1000	0	0	0	0	3000	3	Object3.jpg	-16	0	0	0	0	0	0
2022-07-10	19:58:12	1	5	1	6.5.2	13	1	TNT_Think_CSp	fixation	0	5	1500	0	0	1	1495	1	+	-11	0	0	0	0	0	0
2022-07-10	19:58:12	1	5	1	6.5.2	13	2	TNT_Think_CSp	Think	0	5	0	0	0	0	1000	1	THINK	-16	0	0	0	0	0	0
2022-07-10	19:58:12	1	5	1	6.5.2	13	3	TNT_Think_CSp	TNT_Think_CSp	0	5	0	0	0	0	6000	1	Cue32.jpg	-16	0	0	0	0	0	0
2022-07-10	19:58:12	1	5	1	6.5.2	13	4	TNT_Think_CSp	Intrusion	0	500	3000	0	4	1	258	1	How <b>often</b> did you <b>think</b> about the <b>scene</b>?   <center><br><b>NEVER (1)    BRIEFLY (2)   OFTEN (3) </b>	-16	0	0	0	0	0	0
2022-07-10	19:58:12	1	5	1	6.5.2	14	1	TNT_Object_CSm	fixation	0	5	500	0	0	1	495	1	+	-10	0	0	0	0	0	0
2022-07-10	19:58:12	1	5	1	6.5.2	14	2	TNT_Object_CSm	Passive	0	5	0	0	0	0	1000	1	VIEW	-16	0	0	0	0	0	0
2022-07-10	19:58:12	1	5	1	6.5.2	14	3	TNT_Object_CSm	TNT_Object_CSm	0	500	0	0	0	0	3000	2	Object7.jpg	-16	0	0	0	0	0	0
2022-07-10	19:58:12	1	5	1	6.5.2	15	1	TNT_Object_CSp	fixation	0	5	1000	0	0	1	995	1	+	-11	0	0	0	0	0	0
2022-07-10	19:58:12	1	5	1	6.5.2	15	2	TNT_Object_CSp	Passive	0	5	0	0	0	0	1000	1	VIEW	-16	0	0	0	0	0	0
2022-07-10	19:58:12	1	5	1	6.5.2	15	3	TNT_Object_CSp	TNT_Object_CSp	0	500	0	0	0	0	3000	3	Object4.jpg	-16	0	0	0	0	0	0
2022-07-10	19:58:12	1	5	1	6.5.2	16	1	TNT_Think_CSm	fixation	0	5	1000	0	0	1	995	1	+	-10	0	0	0	0	0	0
2022-07-10	19:58:12	1	5	1	6.5.2	16	2	TNT_Think_CSm	Think	0	5	0	0	0	0	1000	1	THINK	-16	0	0	0	0	0	0
2022-07-10	19:58:12	1	5	1	6.5.2	16	3	TNT_Think_CSm	TNT_Think_CSm	0	5	0	0	0	0	6000	1	Cue33.jpg	-16	0	0	0	0	0	0
2022-07-10	19:58:12	1	5	1	6.5.2	16	4	TNT_Think_CSm	Intrusion	0	1500	3000	0	4	1	303	1	How <b>often</b> did you <b>think</b> about the <b>scene</b>?   <center><br><b>NEVER (1)    BRIEFLY (2)   OFTEN (3) </b>	-16	0	0	0	0	0	0
2022-07-10	19:58:12	1	5	1	6.5.2	17	1	TNT_Object_CSm	fixation	0	5	1500	0	0	1	1495	1	+	-11	0	0	0	0	0	0
2022-07-10	19:58:12	1	5	1	6.5.2	17	2	TNT_Object_CSm	Passive	0	5	0	0	0	0	1000	1	VIEW	-16	0	0	0	0	0	0
2022-07-10	19:58:12	1	5	1	6.5.2	17	3	TNT_Object_CSm	TNT_Object_CSm	0	1000	0	0	0	0	3000	4	Object2.jpg	-16	0	0	0	0	0	0
2022-07-10	19:58:12	1	5	1	6.5.2	18	1	TNT_NoThink_CSm	fixation	0	5	500	0	0	1	495	1	+	-11	0	0	0	0	0	0
2022-07-10	19:58:12	1	5	1	6.5.2	18	2	TNT_NoThink_CSm	NoThink	0	5	0	0	0	0	1000	1	DON'T THINK	-13	0	0	0	0	0	0
2022-07-10	19:58:12	1	5	1	6.5.2	18	3	TNT_NoThink_CSm	TNT_NoThink_CSm	0	5	0	0	0	0	3000	1	Cue7.jpg	-16	0	0	0	0	0	0
2022-07-10	19:58:12	1	5	1	6.5.2	18	4	TNT_NoThink_CSm	Intrusion	0	500	3000	0	4	1	295	1	How <b>often</b> did you <b>think</b> about the <b>scene</b>?   <center><br><b>NEVER (1)    BRIEFLY (2)   OFTEN (3) </b>	-16	0	0	0	0	0	0
2022-07-10	19:58:12	1	5	1	6.5.2	19	1	TNT_Think_CSm	fixation	0	5	500	0	0	1	495	1	+	-11	0	0	0	0	0	0
2022-07-10	19:58:12	1	5	1	6.5.2	19	2	TNT_Think_CSm	Think	0	5	0	0	0	0	1000	1	THINK	-16	0	0	0	0	0	0
2022-07-10	19:58:12	1	5	1	6.5.2	19	3	TNT_Think_CSm	TNT_Think_CSm	0	5	0	0	0	0	6000	3	Cue13.jpg	-16	0	0	0	0	0	0
2022-07-10	19:58:12	1	5	1	6.5.2	19	4	TNT_Think_CSm	Intrusion	0	1500	3000	0	4	1	277	1	How <b>often</b> did you <b>think</b> about the <b>scene</b>?   <center><br><b>NEVER (1)    BRIEFLY (2)   OFTEN (3) </b>	-16	0	0	0	0	0	0
2022-07-10	19:58:12	1	5	1	6.5.2	20	1	TNT_NoThink_CSm	fixation	0	5	1000	0	0	1	995	1	+	-10	0	0	0	0	0	0
2022-07-10	19:58:12	1	5	1	6.5.2	20	2	TNT_NoThink_CSm	NoThink	0	5	0	0	0	0	1000	1	DON'T THINK	-16	0	0	0	0	0	0
2022-07-10	19:58:12	1	5	1	6.5.2	20	3	TNT_NoThink_CSm	TNT_NoThink_CSm	0	5	0	0	0	0	3000	4	Cue25.jpg	-16	0	0	0	0	0	0
2022-07-10	19:58:12	1	5	1	6.5.2	20	4	TNT_NoThink_CSm	Intrusion	0	1000	3000	0	4	1	365	1	How <b>often</b> did you <b>think</b> about the <b>scene</b>?   <center><br><b>NEVER (1)    BRIEFLY (2)   OFTEN (3) </b>	-16	0	0	0	0	0	0
2022-07-10	19:58:12	1	5	1	6.5.2	21	1	TNT_NoThink_CSm	fixation	0	5	1500	0	0	1	1495	1	+	-10	0	0	0	0	0	0
2022-07-10	19:58:12	1	5	1	6.5.2	21	2	TNT_NoThink_CSm	NoThink	0	5	0	0	0	0	1000	1	DON'T THINK	-10	0	0	0	0	0	0
2022-07-10	19:58:12	1	5	1	6.5.2	21	3	TNT_NoThink_CSm	TNT_NoThink_CSm	0	5	0	0	0	0	3000	5	Cue14.jpg	-16	0	0	0	0	0	0
2022-07-10	19:58:12	1	5	1	6.5.2	21	4	TNT_NoThink_CSm	Intrusion	0	500	3000	0	2	1	1003	1	How <b>often</b> did you <b>think</b> about the <b>scene</b>?   <center><br><b>NEVER (1)    BRIEFLY (2)   OFTEN (3) </b>	-16	0	0	0	0	0	0
2022-07-10	19:58:12	1	5	1	6.5.2	22	1	TNT_Think_CSm	fixation	0	5	1500	0	0	1	1495	1	+	-10	0	0	0	0	0	0
2022-07-10	19:58:12	1	5	1	6.5.2	22	2	TNT_Think_CSm	Think	0	5	0	0	0	0	1000	1	THINK	-16	0	0	0	0	0	0
2022-07-10	19:58:12	1	5	1	6.5.2	22	3	TNT_Think_CSm	TNT_Think_CSm	0	5	0	0	0	0	6000	6	Cue15.jpg	-16	0	0	0	0	0	0
2022-07-10	19:58:12	1	5	1	6.5.2	22	4	TNT_Think_CSm	Intrusion	0	1000	3000	0	4	1	267	1	How <b>often</b> did you <b>think</b> about the <b>scene</b>?   <center><br><b>NEVER (1)    BRIEFLY (2)   OFTEN (3) </b>	-16	0	0	0	0	0	0
2022-07-10	19:58:12	1	5	1	6.5.2	23	1	TNT_NoThink_CSm	fixation	0	5	1000	0	0	1	995	1	+	-11	0	0	0	0	0	0
2022-07-10	19:58:12	1	5	1	6.5.2	23	2	TNT_NoThink_CSm	NoThink	0	5	0	0	0	0	1000	1	DON'T THINK	-16	0	0	0	0	0	0
2022-07-10	19:58:12	1	5	1	6.5.2	23	3	TNT_NoThink_CSm	TNT_NoThink_CSm	0	5	0	0	0	0	3000	6	Cue3.jpg	-16	0	0	0	0	0	0
2022-07-10	19:58:12	1	5	1	6.5.2	23	4	TNT_NoThink_CSm	Intrusion	0	1500	3000	0	0	0	1500	1	How <b>often</b> did you <b>think</b> about the <b>scene</b>?   <center><br><b>NEVER (1)    BRIEFLY (2)   OFTEN (3) </b>	-16	0	0	0	0	0	0
2022-07-10	19:58:12	1	5	1	6.5.2	24	1	TNT_Think_CSp	fixation	0	5	500	0	0	1	495	1	+	-10	0	0	0	0	0	0
2022-07-10	19:58:12	1	5	1	6.5.2	24	2	TNT_Think_CSp	Think	0	5	0	0	0	0	1000	1	THINK	-16	0	0	0	0	0	0
2022-07-10	19:58:12	1	5	1	6.5.2	24	3	TNT_Think_CSp	TNT_Think_CSp	0	5	0	0	0	0	6000	3	Cue12.jpg	-16	0	0	0	0	0	0
2022-07-10	19:58:12	1	5	1	6.5.2	24	4	TNT_Think_CSp	Intrusion	0	1000	3000	0	4	1	257	1	How <b>often</b> did you <b>think</b> about the <b>scene</b>?   <center><br><b>NEVER (1)    BRIEFLY (2)   OFTEN (3) </b>	-16	0	0	0	0	0	0
2022-07-10	19:58:12	1	5	1	6.5.2	25	1	TNT_NoThink_CSm	fixation	0	5	500	0	0	1	495	1	+	-11	0	0	0	0	0	0
2022-07-10	19:58:12	1	5	1	6.5.2	25	2	TNT_NoThink_CSm	NoThink	0	5	0	0	0	0	1000	1	DON'T THINK	-16	0	0	0	0	0	0
2022-07-10	19:58:12	1	5	1	6.5.2	25	3	TNT_NoThink_CSm	TNT_NoThink_CSm	0	5	0	0	0	0	3000	3	Cue36.jpg	-16	0	0	0	0	0	0
2022-07-10	19:58:12	1	5	1	6.5.2	25	4	TNT_NoThink_CSm	Intrusion	0	500	3000	0	4	1	1584	1	How <b>often</b> did you <b>think</b> about the <b>scene</b>?   <center><br><b>NEVER (1)    BRIEFLY (2)   OFTEN (3) </b>	-16	0	0	0	0	0	0
2022-07-10	19:58:12	1	5	1	6.5.2	26	1	TNT_Think_CSm	fixation	0	5	1500	0	0	1	1495	1	+	-11	0	0	0	0	0	0
2022-07-10	19:58:12	1	5	1	6.5.2	26	2	TNT_Think_CSm	Think	0	5	0	0	0	0	1000	1	THINK	-16	0	0	0	0	0	0
2022-07-10	19:58:12	1	5	1	6.5.2	26	3	TNT_Think_CSm	TNT_Think_CSm	0	5	0	0	0	0	6000	5	Cue6.jpg	-16	0	0	0	0	0	0
2022-07-10	19:58:12	1	5	1	6.5.2	26	4	TNT_Think_CSm	Intrusion	0	1500	3000	0	4	1	786	1	How <b>often</b> did you <b>think</b> about the <b>scene</b>?   <center><br><b>NEVER (1)    BRIEFLY (2)   OFTEN (3) </b>	-16	0	0	0	0	0	0
2022-07-10	19:58:12	1	5	1	6.5.2	27	1	TNT_Think_CSp	fixation	0	5	1000	0	0	1	995	1	+	-11	0	0	0	0	0	0
2022-07-10	19:58:12	1	5	1	6.5.2	27	2	TNT_Think_CSp	Think	0	5	0	0	0	0	1000	1	THINK	-16	0	0	0	0	0	0
2022-07-10	19:58:12	1	5	1	6.5.2	27	3	TNT_Think_CSp	TNT_Think_CSp	0	5	0	0	0	0	6000	5	Cue22.jpg	-16	0	0	0	0	0	0
2022-07-10	19:58:12	1	5	1	6.5.2	27	4	TNT_Think_CSp	Intrusion	0	1000	3000	0	4	1	601	1	How <b>often</b> did you <b>think</b> about the <b>scene</b>?   <center><br><b>NEVER (1)    BRIEFLY (2)   OFTEN (3) </b>	-16	0	0	0	0	0	0
2022-07-10	19:58:12	1	5	1	6.5.2	28	1	TNT_NoThink_CSp	fixation	0	5	500	0	0	1	495	1	+	-10	0	0	0	0	0	0
2022-07-10	19:58:12	1	5	1	6.5.2	28	2	TNT_NoThink_CSp	NoThink	0	5	0	0	0	0	1000	1	DON'T THINK	-16	0	0	0	0	0	0
2022-07-10	19:58:12	1	5	1	6.5.2	28	3	TNT_NoThink_CSp	TNT_NoThink_CSp	0	5	0	0	0	0	3000	5	Cue19.jpg	-16	0	0	0	0	0	0
2022-07-10	19:58:12	1	5	1	6.5.2	28	4	TNT_NoThink_CSp	Intrusion	0	500	3000	0	0	0	2500	1	How <b>often</b> did you <b>think</b> about the <b>scene</b>?   <center><br><b>NEVER (1)    BRIEFLY (2)   OFTEN (3) </b>	-16	0	0	0	0	0	0
2022-07-10	19:58:12	1	5	1	6.5.2	29	1	TNT_Think_CSm	fixation	0	5	1500	0	0	1	1495	1	+	-10	0	0	0	0	0	0
2022-07-10	19:58:12	1	5	1	6.5.2	29	2	TNT_Think_CSm	Think	0	5	0	0	0	0	1000	1	THINK	-16	0	0	0	0	0	0
2022-07-10	19:58:12	1	5	1	6.5.2	29	3	TNT_Think_CSm	TNT_Think_CSm	0	5	0	0	0	0	6000	4	Cue21.jpg	-16	0	0	0	0	0	0
2022-07-10	19:58:12	1	5	1	6.5.2	29	4	TNT_Think_CSm	Intrusion	0	1500	3000	0	4	1	309	1	How <b>often</b> did you <b>think</b> about the <b>scene</b>?   <center><br><b>NEVER (1)    BRIEFLY (2)   OFTEN (3) </b>	-16	0	0	0	0	0	0
2022-07-10	19:58:12	1	5	1	6.5.2	30	1	TNT_NoThink_CSp	fixation	0	5	1000	0	0	1	995	1	+	-10	0	0	0	0	0	0
2022-07-10	19:58:12	1	5	1	6.5.2	30	2	TNT_NoThink_CSp	NoThink	0	5	0	0	0	0	1000	1	DON'T THINK	-16	0	0	0	0	0	0
2022-07-10	19:58:12	1	5	1	6.5.2	30	3	TNT_NoThink_CSp	TNT_NoThink_CSp	0	5	0	0	0	0	3000	3	Cue1.jpg	-16	0	0	0	0	0	0
2022-07-10	19:58:12	1	5	1	6.5.2	30	4	TNT_NoThink_CSp	Intrusion	0	1500	3000	0	2	1	774	1	How <b>often</b> did you <b>think</b> about the <b>scene</b>?   <center><br><b>NEVER (1)    BRIEFLY (2)   OFTEN (3) </b>	-16	0	0	0	0	0	0
2022-07-10	19:58:12	1	5	1	6.5.2	31	1	TNT_NoThink_CSp	fixation	0	5	500	0	0	1	495	1	+	-10	0	0	0	0	0	0
2022-07-10	19:58:12	1	5	1	6.5.2	31	2	TNT_NoThink_CSp	NoThink	0	5	0	0	0	0	1000	1	DON'T THINK	-11	0	0	0	0	0	0
2022-07-10	19:58:12	1	5	1	6.5.2	31	3	TNT_NoThink_CSp	TNT_NoThink_CSp	0	5	0	0	0	0	3000	1	Cue8.jpg	-16	0	0	0	0	0	0
2022-07-10	19:58:12	1	5	1	6.5.2	31	4	TNT_NoThink_CSp	Intrusion	0	500	3000	0	3	1	1272	1	How <b>often</b> did you <b>think</b> about the <b>scene</b>?   <center><br><b>NEVER (1)    BRIEFLY (2)   OFTEN (3) </b>	-16	0	0	0	0	0	0
2022-07-10	19:58:12	1	5	1	6.5.2	32	1	TNT_Think_CSp	fixation	0	5	1500	0	0	1	1495	1	+	-10	0	0	0	0	0	0
2022-07-10	19:58:12	1	5	1	6.5.2	32	2	TNT_Think_CSp	Think	0	5	0	0	0	0	1000	1	THINK	-16	0	0	0	0	0	0
2022-07-10	19:58:12	1	5	1	6.5.2	32	3	TNT_Think_CSp	TNT_Think_CSp	0	5	0	0	0	0	6000	6	Cue10.jpg	-16	0	0	0	0	0	0
2022-07-10	19:58:12	1	5	1	6.5.2	32	4	TNT_Think_CSp	Intrusion	0	1000	3000	0	4	1	315	1	How <b>often</b> did you <b>think</b> about the <b>scene</b>?   <center><br><b>NEVER (1)    BRIEFLY (2)   OFTEN (3) </b>	-16	0	0	0	0	0	0
2022-07-10	19:58:12	1	5	1	6.5.2	33	1	TNT_Think_CSp	fixation	0	5	1000	0	0	1	995	1	+	-11	0	0	0	0	0	0
2022-07-10	19:58:12	1	5	1	6.5.2	33	2	TNT_Think_CSp	Think	0	5	0	0	0	0	1000	1	THINK	-16	0	0	0	0	0	0
2022-07-10	19:58:12	1	5	1	6.5.2	33	3	TNT_Think_CSp	TNT_Think_CSp	0	5	0	0	0	0	6000	3	Cue12.jpg	-16	0	0	0	0	0	0
2022-07-10	19:58:12	1	5	1	6.5.2	33	4	TNT_Think_CSp	Intrusion	0	1000	3000	0	4	1	505	1	How <b>often</b> did you <b>think</b> about the <b>scene</b>?   <center><br><b>NEVER (1)    BRIEFLY (2)   OFTEN (3) </b>	-16	0	0	0	0	0	0
2022-07-10	19:58:12	1	5	1	6.5.2	34	1	TNT_Think_CSp	fixation	0	5	500	0	0	1	495	1	+	-10	0	0	0	0	0	0
2022-07-10	19:58:12	1	5	1	6.5.2	34	2	TNT_Think_CSp	Think	0	5	0	0	0	0	1000	1	THINK	-16	0	0	0	0	0	0
2022-07-10	19:58:12	1	5	1	6.5.2	34	3	TNT_Think_CSp	TNT_Think_CSp	0	5	0	0	0	0	6000	2	Cue26.jpg	-16	0	0	0	0	0	0
2022-07-10	19:58:12	1	5	1	6.5.2	34	4	TNT_Think_CSp	Intrusion	0	1500	3000	0	4	1	496	1	How <b>often</b> did you <b>think</b> about the <b>scene</b>?   <center><br><b>NEVER (1)    BRIEFLY (2)   OFTEN (3) </b>	-16	0	0	0	0	0	0
2022-07-10	19:58:12	1	5	1	6.5.2	35	1	TNT_Object_CSm	fixation	0	5	1500	0	0	1	1495	1	+	-11	0	0	0	0	0	0
2022-07-10	19:58:12	1	5	1	6.5.2	35	2	TNT_Object_CSm	Passive	0	5	0	0	0	0	1000	1	VIEW	-16	0	0	0	0	0	0
2022-07-10	19:58:12	1	5	1	6.5.2	35	3	TNT_Object_CSm	TNT_Object_CSm	0	1500	0	0	0	0	3000	1	Object1.jpg	-16	0	0	0	0	0	0
2022-07-10	19:58:12	1	5	1	6.5.2	36	1	TNT_Object_CSp	fixation	0	5	1000	0	0	1	995	1	+	-11	0	0	0	0	0	0
2022-07-10	19:58:12	1	5	1	6.5.2	36	2	TNT_Object_CSp	Passive	0	5	0	0	0	0	1000	1	VIEW	-16	0	0	0	0	0	0
2022-07-10	19:58:12	1	5	1	6.5.2	36	3	TNT_Object_CSp	TNT_Object_CSp	0	1000	0	0	0	0	3000	4	Object6.jpg	-16	0	0	0	0	0	0
2022-07-10	19:58:12	1	5	1	6.5.2	37	1	TNT_Think_CSp	fixation	0	5	1500	0	0	1	1495	1	+	-10	0	0	0	0	0	0
2022-07-10	19:58:12	1	5	1	6.5.2	37	2	TNT_Think_CSp	Think	0	5	0	0	0	0	1000	1	THINK	-13	0	0	0	0	0	0
2022-07-10	19:58:12	1	5	1	6.5.2	37	3	TNT_Think_CSp	TNT_Think_CSp	0	5	0	0	0	0	6000	4	Cue34.jpg	-16	0	0	0	0	0	0
2022-07-10	19:58:12	1	5	1	6.5.2	37	4	TNT_Think_CSp	Intrusion	0	500	3000	0	4	1	699	1	How <b>often</b> did you <b>think</b> about the <b>scene</b>?   <center><br><b>NEVER (1)    BRIEFLY (2)   OFTEN (3) </b>	-16	0	0	0	0	0	0
2022-07-10	19:58:12	1	5	1	6.5.2	38	1	TNT_NoThink_CSm	fixation	0	5	500	0	0	1	495	1	+	-10	0	0	0	0	0	0
2022-07-10	19:58:12	1	5	1	6.5.2	38	2	TNT_NoThink_CSm	NoThink	0	5	0	0	0	0	1000	1	DON'T THINK	-16	0	0	0	0	0	0
2022-07-10	19:58:12	1	5	1	6.5.2	38	3	TNT_NoThink_CSm	TNT_NoThink_CSm	0	5	0	0	0	0	3000	5	Cue14.jpg	-16	0	0	0	0	0	0
2022-07-10	19:58:12	1	5	1	6.5.2	38	4	TNT_NoThink_CSm	Intrusion	0	1500	3000	0	3	1	916	1	How <b>often</b> did you <b>think</b> about the <b>scene</b>?   <center><br><b>NEVER (1)    BRIEFLY (2)   OFTEN (3) </b>	-16	0	0	0	0	0	0
2022-07-10	19:58:12	1	5	1	6.5.2	39	1	TNT_Think_CSp	fixation	0	5	1000	0	0	1	995	1	+	-10	0	0	0	0	0	0
2022-07-10	19:58:12	1	5	1	6.5.2	39	2	TNT_Think_CSp	Think	0	5	0	0	0	0	1000	1	THINK	-16	0	0	0	0	0	0
2022-07-10	19:58:12	1	5	1	6.5.2	39	3	TNT_Think_CSp	TNT_Think_CSp	0	5	0	0	0	0	6000	1	Cue32.jpg	-16	0	0	0	0	0	0
2022-07-10	19:58:12	1	5	1	6.5.2	39	4	TNT_Think_CSp	Intrusion	0	500	3000	0	4	1	384	1	How <b>often</b> did you <b>think</b> about the <b>scene</b>?   <center><br><b>NEVER (1)    BRIEFLY (2)   OFTEN (3) </b>	-16	0	0	0	0	0	0
2022-07-10	19:58:12	1	5	1	6.5.2	40	1	TNT_Think_CSm	fixation	0	5	1500	0	0	1	1495	1	+	-10	0	0	0	0	0	0
2022-07-10	19:58:12	1	5	1	6.5.2	40	2	TNT_Think_CSm	Think	0	5	0	0	0	0	1000	1	THINK	-16	0	0	0	0	0	0
2022-07-10	19:58:12	1	5	1	6.5.2	40	3	TNT_Think_CSm	TNT_Think_CSm	0	5	0	0	0	0	6000	3	Cue13.jpg	-16	0	0	0	0	0	0
2022-07-10	19:58:12	1	5	1	6.5.2	40	4	TNT_Think_CSm	Intrusion	0	1000	3000	0	4	1	339	1	How <b>often</b> did you <b>think</b> about the <b>scene</b>?   <center><br><b>NEVER (1)    BRIEFLY (2)   OFTEN (3) </b>	-16	0	0	0	0	0	0
2022-07-10	19:58:12	1	5	1	6.5.2	41	1	TNT_NoThink_CSp	fixation	0	5	500	0	0	1	495	1	+	-10	0	0	0	0	0	0
2022-07-10	19:58:12	1	5	1	6.5.2	41	2	TNT_NoThink_CSp	NoThink	0	5	0	0	0	0	1000	1	DON'T THINK	-16	0	0	0	0	0	0
2022-07-10	19:58:12	1	5	1	6.5.2	41	3	TNT_NoThink_CSp	TNT_NoThink_CSp	0	5	0	0	0	0	3000	5	Cue19.jpg	-16	0	0	0	0	0	0
2022-07-10	19:58:12	1	5	1	6.5.2	41	4	TNT_NoThink_CSp	Intrusion	0	1000	3000	0	2	1	357	1	How <b>often</b> did you <b>think</b> about the <b>scene</b>?   <center><br><b>NEVER (1)    BRIEFLY (2)   OFTEN (3) </b>	-16	0	0	0	0	0	0
2022-07-10	19:58:12	1	5	1	6.5.2	42	1	TNT_NoThink_CSp	fixation	0	5	1000	0	0	1	995	1	+	-10	0	0	0	0	0	0
2022-07-10	19:58:12	1	5	1	6.5.2	42	2	TNT_NoThink_CSp	NoThink	0	5	0	0	0	0	1000	1	DON'T THINK	-11	0	0	0	0	0	0
2022-07-10	19:58:12	1	5	1	6.5.2	42	3	TNT_NoThink_CSp	TNT_NoThink_CSp	0	5	0	0	0	0	3000	3	Cue1.jpg	-16	0	0	0	0	0	0
2022-07-10	19:58:12	1	5	1	6.5.2	42	4	TNT_NoThink_CSp	Intrusion	0	1500	3000	0	2	1	975	1	How <b>often</b> did you <b>think</b> about the <b>scene</b>?   <center><br><b>NEVER (1)    BRIEFLY (2)   OFTEN (3) </b>	-16	0	0	0	0	0	0
2022-07-10	19:58:12	1	5	1	6.5.2	43	1	TNT_Think_CSp	fixation	0	5	1500	0	0	1	1495	1	+	-11	0	0	0	0	0	0
2022-07-10	19:58:12	1	5	1	6.5.2	43	2	TNT_Think_CSp	Think	0	5	0	0	0	0	1000	1	THINK	-16	0	0	0	0	0	0
2022-07-10	19:58:12	1	5	1	6.5.2	43	3	TNT_Think_CSp	TNT_Think_CSp	0	5	0	0	0	0	6000	6	Cue10.jpg	-16	0	0	0	0	0	0
2022-07-10	19:58:12	1	5	1	6.5.2	43	4	TNT_Think_CSp	Intrusion	0	500	3000	0	4	1	295	1	How <b>often</b> did you <b>think</b> about the <b>scene</b>?   <center><br><b>NEVER (1)    BRIEFLY (2)   OFTEN (3) </b>	-16	0	0	0	0	0	0
2022-07-10	19:58:12	1	5	1	6.5.2	44	1	TNT_Think_CSp	fixation	0	5	1000	0	0	1	995	1	+	-10	0	0	0	0	0	0
2022-07-10	19:58:12	1	5	1	6.5.2	44	2	TNT_Think_CSp	Think	0	5	0	0	0	0	1000	1	THINK	-16	0	0	0	0	0	0
2022-07-10	19:58:12	1	5	1	6.5.2	44	3	TNT_Think_CSp	TNT_Think_CSp	0	5	0	0	0	0	6000	5	Cue22.jpg	-16	0	0	0	0	0	0
2022-07-10	19:58:12	1	5	1	6.5.2	44	4	TNT_Think_CSp	Intrusion	0	1000	3000	0	3	1	784	1	How <b>often</b> did you <b>think</b> about the <b>scene</b>?   <center><br><b>NEVER (1)    BRIEFLY (2)   OFTEN (3) </b>	-16	0	0	0	0	0	0
2022-07-10	19:58:12	1	5	1	6.5.2	45	1	TNT_Object_CSm	fixation	0	5	500	0	0	1	495	1	+	-10	0	0	0	0	0	0
2022-07-10	19:58:12	1	5	1	6.5.2	45	2	TNT_Object_CSm	Passive	0	5	0	0	0	0	1000	1	VIEW	-16	0	0	0	0	0	0
2022-07-10	19:58:12	1	5	1	6.5.2	45	3	TNT_Object_CSm	TNT_Object_CSm	0	500	0	0	0	0	3000	2	Object7.jpg	-16	0	0	0	0	0	0
2022-07-10	19:58:12	1	5	1	6.5.2	46	1	TNT_Object_CSm	fixation	0	5	1000	0	0	1	995	1	+	-11	0	0	0	0	0	0
2022-07-10	19:58:12	1	5	1	6.5.2	46	2	TNT_Object_CSm	Passive	0	5	0	0	0	0	1000	1	VIEW	-16	0	0	0	0	0	0
2022-07-10	19:58:12	1	5	1	6.5.2	46	3	TNT_Object_CSm	TNT_Object_CSm	0	1000	0	0	0	0	3000	4	Object2.jpg	-16	0	0	0	0	0	0
2022-07-10	19:58:12	1	5	1	6.5.2	47	1	TNT_Object_CSp	fixation	0	5	500	0	0	1	495	1	+	-11	0	0	0	0	0	0
2022-07-10	19:58:12	1	5	1	6.5.2	47	2	TNT_Object_CSp	Passive	0	5	0	0	0	0	1000	1	VIEW	-16	0	0	0	0	0	0
2022-07-10	19:58:12	1	5	1	6.5.2	47	3	TNT_Object_CSp	TNT_Object_CSp	0	1500	0	0	0	0	3000	2	Object5.jpg	-16	0	0	0	0	0	0
2022-07-10	19:58:12	1	5	1	6.5.2	48	1	TNT_Think_CSm	fixation	0	5	1500	0	0	1	1495	1	+	-10	0	0	0	0	0	0
2022-07-10	19:58:12	1	5	1	6.5.2	48	2	TNT_Think_CSm	Think	0	5	0	0	0	0	1000	1	THINK	-16	0	0	0	0	0	0
2022-07-10	19:58:12	1	5	1	6.5.2	48	3	TNT_Think_CSm	TNT_Think_CSm	0	5	0	0	0	0	6000	1	Cue33.jpg	-16	0	0	0	0	0	0
2022-07-10	19:58:12	1	5	1	6.5.2	48	4	TNT_Think_CSm	Intrusion	0	1500	3000	0	4	1	345	1	How <b>often</b> did you <b>think</b> about the <b>scene</b>?   <center><br><b>NEVER (1)    BRIEFLY (2)   OFTEN (3) </b>	-16	0	0	0	0	0	0
2022-07-10	19:58:12	1	5	1	6.5.2	49	1	TNT_NoThink_CSm	fixation	0	5	500	0	0	1	495	1	+	-11	0	0	0	0	0	0
2022-07-10	19:58:12	1	5	1	6.5.2	49	2	TNT_NoThink_CSm	NoThink	0	5	0	0	0	0	1000	1	DON'T THINK	-16	0	0	0	0	0	0
2022-07-10	19:58:12	1	5	1	6.5.2	49	3	TNT_NoThink_CSm	TNT_NoThink_CSm	0	5	0	0	0	0	3000	6	Cue3.jpg	-16	0	0	0	0	0	0
2022-07-10	19:58:12	1	5	1	6.5.2	49	4	TNT_NoThink_CSm	Intrusion	0	500	3000	0	3	1	1118	1	How <b>often</b> did you <b>think</b> about the <b>scene</b>?   <center><br><b>NEVER (1)    BRIEFLY (2)   OFTEN (3) </b>	-16	0	0	0	0	0	0
2022-07-10	19:58:12	1	5	1	6.5.2	50	1	TNT_Think_CSm	fixation	0	5	1000	0	0	1	995	1	+	-10	0	0	0	0	0	0
2022-07-10	19:58:12	1	5	1	6.5.2	50	2	TNT_Think_CSm	Think	0	5	0	0	0	0	1000	1	THINK	-16	0	0	0	0	0	0
2022-07-10	19:58:12	1	5	1	6.5.2	50	3	TNT_Think_CSm	TNT_Think_CSm	0	5	0	0	0	0	6000	5	Cue6.jpg	-16	0	0	0	0	0	0
2022-07-10	19:58:12	1	5	1	6.5.2	50	4	TNT_Think_CSm	Intrusion	0	500	3000	0	4	1	798	1	How <b>often</b> did you <b>think</b> about the <b>scene</b>?   <center><br><b>NEVER (1)    BRIEFLY (2)   OFTEN (3) </b>	-13	0	0	0	0	0	0
2022-07-10	19:58:12	1	5	1	6.5.2	51	1	TNT_NoThink_CSm	fixation	0	5	1500	0	0	1	1495	1	+	-10	0	0	0	0	0	0
2022-07-10	19:58:12	1	5	1	6.5.2	51	2	TNT_NoThink_CSm	NoThink	0	5	0	0	0	0	1000	1	DON'T THINK	-16	0	0	0	0	0	0
2022-07-10	19:58:12	1	5	1	6.5.2	51	3	TNT_NoThink_CSm	TNT_NoThink_CSm	0	5	0	0	0	0	3000	1	Cue7.jpg	-16	0	0	0	0	0	0
2022-07-10	19:58:12	1	5	1	6.5.2	51	4	TNT_NoThink_CSm	Intrusion	0	1500	3000	0	3	1	1392	1	How <b>often</b> did you <b>think</b> about the <b>scene</b>?   <center><br><b>NEVER (1)    BRIEFLY (2)   OFTEN (3) </b>	-16	0	0	0	0	0	0
2022-07-10	19:58:12	1	5	1	6.5.2	52	1	TNT_Object_CSp	fixation	0	5	1000	0	0	1	995	1	+	-10	0	0	0	0	0	0
2022-07-10	19:58:12	1	5	1	6.5.2	52	2	TNT_Object_CSp	Passive	0	5	0	0	0	0	1000	1	VIEW	-16	0	0	0	0	0	0
2022-07-10	19:58:12	1	5	1	6.5.2	52	3	TNT_Object_CSp	TNT_Object_CSp	0	1000	0	0	0	0	3000	3	Object4.jpg	-16	0	0	0	0	0	0
2022-07-10	19:58:12	1	5	1	6.5.2	53	1	TNT_Object_CSm	fixation	0	5	500	0	0	1	495	1	+	-10	0	0	0	0	0	0
2022-07-10	19:58:12	1	5	1	6.5.2	53	2	TNT_Object_CSm	Passive	0	5	0	0	0	0	1000	1	VIEW	-16	0	0	0	0	0	0
2022-07-10	19:58:12	1	5	1	6.5.2	53	3	TNT_Object_CSm	TNT_Object_CSm	0	1500	0	0	0	0	3000	3	Object3.jpg	-16	0	0	0	0	0	0
2022-07-10	19:58:12	1	5	1	6.5.2	54	1	TNT_Think_CSm	fixation	0	5	1500	0	0	1	1495	1	+	-11	0	0	0	0	0	0
2022-07-10	19:58:12	1	5	1	6.5.2	54	2	TNT_Think_CSm	Think	0	5	0	0	0	0	1000	1	THINK	-16	0	0	0	0	0	0
2022-07-10	19:58:12	1	5	1	6.5.2	54	3	TNT_Think_CSm	TNT_Think_CSm	0	5	0	0	0	0	6000	6	Cue15.jpg	-16	0	0	0	0	0	0
2022-07-10	19:58:12	1	5	1	6.5.2	54	4	TNT_Think_CSm	Intrusion	0	1000	3000	0	4	1	489	1	How <b>often</b> did you <b>think</b> about the <b>scene</b>?   <center><br><b>NEVER (1)    BRIEFLY (2)   OFTEN (3) </b>	-16	0	0	0	0	0	0
2022-07-10	19:58:12	1	5	1	6.5.2	55	1	TNT_Think_CSm	fixation	0	5	1500	0	0	1	1495	1	+	-10	0	0	0	0	0	0
2022-07-10	19:58:12	1	5	1	6.5.2	55	2	TNT_Think_CSm	Think	0	5	0	0	0	0	1000	1	THINK	-16	0	0	0	0	0	0
2022-07-10	19:58:12	1	5	1	6.5.2	55	3	TNT_Think_CSm	TNT_Think_CSm	0	5	0	0	0	0	6000	4	Cue21.jpg	-16	0	0	0	0	0	0
2022-07-10	19:58:12	1	5	1	6.5.2	55	4	TNT_Think_CSm	Intrusion	0	1000	3000	0	4	1	881	1	How <b>often</b> did you <b>think</b> about the <b>scene</b>?   <center><br><b>NEVER (1)    BRIEFLY (2)   OFTEN (3) </b>	-16	0	0	0	0	0	0
2022-07-10	19:58:12	1	5	1	6.5.2	56	1	TNT_NoThink_CSm	fixation	0	5	500	0	0	1	495	1	+	-10	0	0	0	0	0	0
2022-07-10	19:58:12	1	5	1	6.5.2	56	2	TNT_NoThink_CSm	NoThink	0	5	0	0	0	0	1000	1	DON'T THINK	-16	0	0	0	0	0	0
2022-07-10	19:58:12	1	5	1	6.5.2	56	3	TNT_NoThink_CSm	TNT_NoThink_CSm	0	5	0	0	0	0	3000	4	Cue25.jpg	-16	0	0	0	0	0	0
2022-07-10	19:58:12	1	5	1	6.5.2	56	4	TNT_NoThink_CSm	Intrusion	0	1500	3000	0	2	1	685	1	How <b>often</b> did you <b>think</b> about the <b>scene</b>?   <center><br><b>NEVER (1)    BRIEFLY (2)   OFTEN (3) </b>	-16	0	0	0	0	0	0
2022-07-10	19:58:12	1	5	1	6.5.2	57	1	TNT_NoThink_CSp	fixation	0	5	1000	0	0	1	995	1	+	-11	0	0	0	0	0	0
2022-07-10	19:58:12	1	5	1	6.5.2	57	2	TNT_NoThink_CSp	NoThink	0	5	0	0	0	0	1000	1	DON'T THINK	-10	0	0	0	0	0	0
2022-07-10	19:58:12	1	5	1	6.5.2	57	3	TNT_NoThink_CSp	TNT_NoThink_CSp	0	5	0	0	0	0	3000	4	Cue18.jpg	-16	0	0	0	0	0	0
2022-07-10	19:58:12	1	5	1	6.5.2	57	4	TNT_NoThink_CSp	Intrusion	0	500	3000	0	2	1	703	1	How <b>often</b> did you <b>think</b> about the <b>scene</b>?   <center><br><b>NEVER (1)    BRIEFLY (2)   OFTEN (3) </b>	-16	0	0	0	0	0	0
2022-07-10	19:58:12	1	5	1	6.5.2	58	1	TNT_NoThink_CSp	fixation	0	5	1500	0	0	1	1495	1	+	-11	0	0	0	0	0	0
2022-07-10	19:58:12	1	5	1	6.5.2	58	2	TNT_NoThink_CSp	NoThink	0	5	0	0	0	0	1000	1	DON'T THINK	-16	0	0	0	0	0	0
2022-07-10	19:58:12	1	5	1	6.5.2	58	3	TNT_NoThink_CSp	TNT_NoThink_CSp	0	5	0	0	0	0	3000	6	Cue2.jpg	-16	0	0	0	0	0	0
2022-07-10	19:58:12	1	5	1	6.5.2	58	4	TNT_NoThink_CSp	Intrusion	0	1500	3000	0	3	1	892	1	How <b>often</b> did you <b>think</b> about the <b>scene</b>?   <center><br><b>NEVER (1)    BRIEFLY (2)   OFTEN (3) </b>	-16	0	0	0	0	0	0
2022-07-10	19:58:12	1	5	1	6.5.2	59	1	TNT_NoThink_CSm	fixation	0	5	1000	0	0	1	995	1	+	-10	0	0	0	0	0	0
2022-07-10	19:58:12	1	5	1	6.5.2	59	2	TNT_NoThink_CSm	NoThink	0	5	0	0	0	0	1000	1	DON'T THINK	-16	0	0	0	0	0	0
2022-07-10	19:58:12	1	5	1	6.5.2	59	3	TNT_NoThink_CSm	TNT_NoThink_CSm	0	5	0	0	0	0	3000	3	Cue36.jpg	-16	0	0	0	0	0	0
2022-07-10	19:58:12	1	5	1	6.5.2	59	4	TNT_NoThink_CSm	Intrusion	0	500	3000	0	3	1	1135	1	How <b>often</b> did you <b>think</b> about the <b>scene</b>?   <center><br><b>NEVER (1)    BRIEFLY (2)   OFTEN (3) </b>	-16	0	0	0	0	0	0
2022-07-10	19:58:12	1	5	1	6.5.2	60	1	TNT_Object_CSp	fixation	0	5	500	0	0	1	495	1	+	-10	0	0	0	0	0	0
2022-07-10	19:58:12	1	5	1	6.5.2	60	2	TNT_Object_CSp	Passive	0	5	0	0	0	0	1000	1	VIEW	-16	0	0	0	0	0	0
2022-07-10	19:58:12	1	5	1	6.5.2	60	3	TNT_Object_CSp	TNT_Object_CSp	0	1500	0	0	0	0	3000	1	Object8.jpg	-16	0	0	0	0	0	0
2022-07-10	19:58:12	1	5	1	6.5.2	61	1	TNT_NoThink_CSm	fixation	0	5	1500	0	0	1	1495	1	+	-10	0	0	0	0	0	0
2022-07-10	19:58:12	1	5	1	6.5.2	61	2	TNT_NoThink_CSm	NoThink	0	5	0	0	0	0	1000	1	DON'T THINK	-13	0	0	0	0	0	0
2022-07-10	19:58:12	1	5	1	6.5.2	61	3	TNT_NoThink_CSm	TNT_NoThink_CSm	0	5	0	0	0	0	3000	2	Cue35.jpg	-16	0	0	0	0	0	0
2022-07-10	19:58:12	1	5	1	6.5.2	61	4	TNT_NoThink_CSm	Intrusion	0	1000	3000	0	3	1	915	1	How <b>often</b> did you <b>think</b> about the <b>scene</b>?   <center><br><b>NEVER (1)    BRIEFLY (2)   OFTEN (3) </b>	-16	0	0	0	0	0	0
2022-07-10	19:58:12	1	5	1	6.5.2	62	1	TNT_Think_CSm	fixation	0	5	500	0	0	1	495	1	+	-10	0	0	0	0	0	0
2022-07-10	19:58:12	1	5	1	6.5.2	62	2	TNT_Think_CSm	Think	0	5	0	0	0	0	1000	1	THINK	-11	0	0	0	0	0	0
2022-07-10	19:58:12	1	5	1	6.5.2	62	3	TNT_Think_CSm	TNT_Think_CSm	0	5	0	0	0	0	6000	2	Cue24.jpg	-16	0	0	0	0	0	0
2022-07-10	19:58:12	1	5	1	6.5.2	62	4	TNT_Think_CSm	Intrusion	0	1500	3000	0	4	1	232	1	How <b>often</b> did you <b>think</b> about the <b>scene</b>?   <center><br><b>NEVER (1)    BRIEFLY (2)   OFTEN (3) </b>	-16	0	0	0	0	0	0
2022-07-10	19:58:12	1	5	1	6.5.2	63	1	TNT_NoThink_CSp	fixation	0	5	1000	0	0	1	995	1	+	-10	0	0	0	0	0	0
2022-07-10	19:58:12	1	5	1	6.5.2	63	2	TNT_NoThink_CSp	NoThink	0	5	0	0	0	0	1000	1	DON'T THINK	-16	0	0	0	0	0	0
2022-07-10	19:58:12	1	5	1	6.5.2	63	3	TNT_NoThink_CSp	TNT_NoThink_CSp	0	5	0	0	0	0	3000	2	Cue9.jpg	-16	0	0	0	0	0	0
2022-07-10	19:58:12	1	5	1	6.5.2	63	4	TNT_NoThink_CSp	Intrusion	0	1000	3000	0	3	1	869	1	How <b>often</b> did you <b>think</b> about the <b>scene</b>?   <center><br><b>NEVER (1)    BRIEFLY (2)   OFTEN (3) </b>	-16	0	0	0	0	0	0
2022-07-10	19:58:12	1	5	1	6.5.2	64	1	TNT_NoThink_CSp	fixation	0	5	500	0	0	1	495	1	+	-10	0	0	0	0	0	0
2022-07-10	19:58:12	1	5	1	6.5.2	64	2	TNT_NoThink_CSp	NoThink	0	5	0	0	0	0	1000	1	DON'T THINK	-10	0	0	0	0	0	0
2022-07-10	19:58:12	1	5	1	6.5.2	64	3	TNT_NoThink_CSp	TNT_NoThink_CSp	0	5	0	0	0	0	3000	1	Cue8.jpg	-16	0	0	0	0	0	0
2022-07-10	19:58:12	1	5	1	6.5.2	64	4	TNT_NoThink_CSp	Intrusion	0	500	3000	0	3	1	665	1	How <b>often</b> did you <b>think</b> about the <b>scene</b>?   <center><br><b>NEVER (1)    BRIEFLY (2)   OFTEN (3) </b>	-16	0	0	0	0	0	0
2022-07-10	19:58:12	1	5	1	6.5.2	65	1	between_TNT	between_TNT	0	5	0	0	0	0	15000	1	<center> <br><br><br>This is the end of the block. <br><br> You have a 15 second break.	-10	0	0	0	0	0	0
2022-07-10	19:58:12	1	5	1	6.5.2	66	1	TNT_NoThink_CSp	fixation	0	5	1000	0	0	1	995	1	+	-10	0	0	0	0	0	0
2022-07-10	19:58:12	1	5	1	6.5.2	66	2	TNT_NoThink_CSp	NoThink	0	5	0	0	0	0	1000	1	DON'T THINK	-16	0	0	0	0	0	0
2022-07-10	19:58:12	1	5	1	6.5.2	66	3	TNT_NoThink_CSp	TNT_NoThink_CSp	0	5	0	0	0	0	3000	4	Cue18.jpg	-16	0	0	0	0	0	0
2022-07-10	19:58:12	1	5	1	6.5.2	66	4	TNT_NoThink_CSp	Intrusion	0	500	3000	0	2	1	513	1	How <b>often</b> did you <b>think</b> about the <b>scene</b>?   <center><br><b>NEVER (1)    BRIEFLY (2)   OFTEN (3) </b>	-16	0	0	0	0	0	0
2022-07-10	19:58:12	1	5	1	6.5.2	67	1	TNT_Think_CSm	fixation	0	5	1500	0	0	1	1495	1	+	-10	0	0	0	0	0	0
2022-07-10	19:58:12	1	5	1	6.5.2	67	2	TNT_Think_CSm	Think	0	5	0	0	0	0	1000	1	THINK	-16	0	0	0	0	0	0
2022-07-10	19:58:12	1	5	1	6.5.2	67	3	TNT_Think_CSm	TNT_Think_CSm	0	5	0	0	0	0	6000	3	Cue13.jpg	-16	0	0	0	0	0	0
2022-07-10	19:58:12	1	5	1	6.5.2	67	4	TNT_Think_CSm	Intrusion	0	1000	3000	0	4	1	248	1	How <b>often</b> did you <b>think</b> about the <b>scene</b>?   <center><br><b>NEVER (1)    BRIEFLY (2)   OFTEN (3) </b>	-13	0	0	0	0	0	0
2022-07-10	19:58:12	1	5	1	6.5.2	68	1	TNT_Think_CSm	fixation	0	5	1000	0	0	1	995	1	+	-10	0	0	0	0	0	0
2022-07-10	19:58:12	1	5	1	6.5.2	68	2	TNT_Think_CSm	Think	0	5	0	0	0	0	1000	1	THINK	-16	0	0	0	0	0	0
2022-07-10	19:58:12	1	5	1	6.5.2	68	3	TNT_Think_CSm	TNT_Think_CSm	0	5	0	0	0	0	6000	2	Cue24.jpg	-16	0	0	0	0	0	0
2022-07-10	19:58:12	1	5	1	6.5.2	68	4	TNT_Think_CSm	Intrusion	0	1500	3000	0	4	1	451	1	How <b>often</b> did you <b>think</b> about the <b>scene</b>?   <center><br><b>NEVER (1)    BRIEFLY (2)   OFTEN (3) </b>	-16	0	0	0	0	0	0
2022-07-10	19:58:12	1	5	1	6.5.2	69	1	TNT_NoThink_CSm	fixation	0	5	500	0	0	1	495	1	+	-10	0	0	0	0	0	0
2022-07-10	19:58:12	1	5	1	6.5.2	69	2	TNT_NoThink_CSm	NoThink	0	5	0	0	0	0	1000	1	DON'T THINK	-16	0	0	0	0	0	0
2022-07-10	19:58:12	1	5	1	6.5.2	69	3	TNT_NoThink_CSm	TNT_NoThink_CSm	0	5	0	0	0	0	3000	6	Cue3.jpg	-16	0	0	0	0	0	0
2022-07-10	19:58:12	1	5	1	6.5.2	69	4	TNT_NoThink_CSm	Intrusion	0	1000	3000	0	3	1	1227	1	How <b>often</b> did you <b>think</b> about the <b>scene</b>?   <center><br><b>NEVER (1)    BRIEFLY (2)   OFTEN (3) </b>	-16	0	0	0	0	0	0
2022-07-10	19:58:12	1	5	1	6.5.2	70	1	TNT_Object_CSp	fixation	0	5	1500	0	0	1	1495	1	+	-10	0	0	0	0	0	0
2022-07-10	19:58:12	1	5	1	6.5.2	70	2	TNT_Object_CSp	Passive	0	5	0	0	0	0	1000	1	VIEW	-16	0	0	0	0	0	0
2022-07-10	19:58:12	1	5	1	6.5.2	70	3	TNT_Object_CSp	TNT_Object_CSp	0	500	0	0	0	0	3000	2	Object5.jpg	-16	0	0	0	0	0	0
2022-07-10	19:58:12	1	5	1	6.5.2	71	1	TNT_Think_CSp	fixation	0	5	1000	0	0	1	995	1	+	-11	0	0	0	0	0	0
2022-07-10	19:58:12	1	5	1	6.5.2	71	2	TNT_Think_CSp	Think	0	5	0	0	0	0	1000	1	THINK	-16	0	0	0	0	0	0
2022-07-10	19:58:12	1	5	1	6.5.2	71	3	TNT_Think_CSp	TNT_Think_CSp	0	5	0	0	0	0	6000	2	Cue26.jpg	-16	0	0	0	0	0	0
2022-07-10	19:58:12	1	5	1	6.5.2	71	4	TNT_Think_CSp	Intrusion	0	500	3000	0	4	1	258	1	How <b>often</b> did you <b>think</b> about the <b>scene</b>?   <center><br><b>NEVER (1)    BRIEFLY (2)   OFTEN (3) </b>	-16	0	0	0	0	0	0
2022-07-10	19:58:12	1	5	1	6.5.2	72	1	TNT_NoThink_CSm	fixation	0	5	1500	0	0	1	1495	1	+	-11	0	0	0	0	0	0
2022-07-10	19:58:12	1	5	1	6.5.2	72	2	TNT_NoThink_CSm	NoThink	0	5	0	0	0	0	1000	1	DON'T THINK	-16	0	0	0	0	0	0
2022-07-10	19:58:12	1	5	1	6.5.2	72	3	TNT_NoThink_CSm	TNT_NoThink_CSm	0	5	0	0	0	0	3000	2	Cue35.jpg	-16	0	0	0	0	0	0
2022-07-10	19:58:12	1	5	1	6.5.2	72	4	TNT_NoThink_CSm	Intrusion	0	1500	3000	0	3	1	229	1	How <b>often</b> did you <b>think</b> about the <b>scene</b>?   <center><br><b>NEVER (1)    BRIEFLY (2)   OFTEN (3) </b>	-13	0	0	0	0	0	0
2022-07-10	19:58:12	1	5	1	6.5.2	73	1	TNT_Think_CSp	fixation	0	5	500	0	0	1	495	1	+	-11	0	0	0	0	0	0
2022-07-10	19:58:12	1	5	1	6.5.2	73	2	TNT_Think_CSp	Think	0	5	0	0	0	0	1000	1	THINK	-11	0	0	0	0	0	0
2022-07-10	19:58:12	1	5	1	6.5.2	73	3	TNT_Think_CSp	TNT_Think_CSp	0	5	0	0	0	0	6000	6	Cue10.jpg	-16	0	0	0	0	0	0
2022-07-10	19:58:12	1	5	1	6.5.2	73	4	TNT_Think_CSp	Intrusion	0	500	3000	0	4	1	589	1	How <b>often</b> did you <b>think</b> about the <b>scene</b>?   <center><br><b>NEVER (1)    BRIEFLY (2)   OFTEN (3) </b>	-16	0	0	0	0	0	0
2022-07-10	19:58:12	1	5	1	6.5.2	74	1	TNT_Object_CSp	fixation	0	5	1500	0	0	1	1495	1	+	-11	0	0	0	0	0	0
2022-07-10	19:58:12	1	5	1	6.5.2	74	2	TNT_Object_CSp	Passive	0	5	0	0	0	0	1000	1	VIEW	-16	0	0	0	0	0	0
2022-07-10	19:58:12	1	5	1	6.5.2	74	3	TNT_Object_CSp	TNT_Object_CSp	0	500	0	0	0	0	3000	1	Object8.jpg	-16	0	0	0	0	0	0
2022-07-10	19:58:12	1	5	1	6.5.2	75	1	TNT_Think_CSp	fixation	0	5	1000	0	0	1	995	1	+	-11	0	0	0	0	0	0
2022-07-10	19:58:12	1	5	1	6.5.2	75	2	TNT_Think_CSp	Think	0	5	0	0	0	0	1000	1	THINK	-16	0	0	0	0	0	0
2022-07-10	19:58:12	1	5	1	6.5.2	75	3	TNT_Think_CSp	TNT_Think_CSp	0	5	0	0	0	0	6000	3	Cue12.jpg	-16	0	0	0	0	0	0
2022-07-10	19:58:12	1	5	1	6.5.2	75	4	TNT_Think_CSp	Intrusion	0	1000	3000	0	4	1	522	1	How <b>often</b> did you <b>think</b> about the <b>scene</b>?   <center><br><b>NEVER (1)    BRIEFLY (2)   OFTEN (3) </b>	-16	0	0	0	0	0	0
2022-07-10	19:58:12	1	5	1	6.5.2	76	1	TNT_Think_CSp	fixation	0	5	500	0	0	1	495	1	+	-11	0	0	0	0	0	0
2022-07-10	19:58:12	1	5	1	6.5.2	76	2	TNT_Think_CSp	Think	0	5	0	0	0	0	1000	1	THINK	-16	0	0	0	0	0	0
2022-07-10	19:58:12	1	5	1	6.5.2	76	3	TNT_Think_CSp	TNT_Think_CSp	0	5	0	0	0	0	6000	1	Cue32.jpg	-16	0	0	0	0	0	0
2022-07-10	19:58:12	1	5	1	6.5.2	76	4	TNT_Think_CSp	Intrusion	0	1500	3000	0	4	1	354	1	How <b>often</b> did you <b>think</b> about the <b>scene</b>?   <center><br><b>NEVER (1)    BRIEFLY (2)   OFTEN (3) </b>	-16	0	0	0	0	0	0
2022-07-10	19:58:12	1	5	1	6.5.2	77	1	TNT_NoThink_CSm	fixation	0	5	1000	0	0	1	995	1	+	-11	0	0	0	0	0	0
2022-07-10	19:58:12	1	5	1	6.5.2	77	2	TNT_NoThink_CSm	NoThink	0	5	0	0	0	0	1000	1	DON'T THINK	-16	0	0	0	0	0	0
2022-07-10	19:58:12	1	5	1	6.5.2	77	3	TNT_NoThink_CSm	TNT_NoThink_CSm	0	5	0	0	0	0	3000	3	Cue36.jpg	-16	0	0	0	0	0	0
2022-07-10	19:58:12	1	5	1	6.5.2	77	4	TNT_NoThink_CSm	Intrusion	0	1500	3000	0	3	1	1234	1	How <b>often</b> did you <b>think</b> about the <b>scene</b>?   <center><br><b>NEVER (1)    BRIEFLY (2)   OFTEN (3) </b>	-16	0	0	0	0	0	0
2022-07-10	19:58:12	1	5	1	6.5.2	78	1	TNT_Think_CSm	fixation	0	5	500	0	0	1	495	1	+	-10	0	0	0	0	0	0
2022-07-10	19:58:12	1	5	1	6.5.2	78	2	TNT_Think_CSm	Think	0	5	0	0	0	0	1000	1	THINK	-16	0	0	0	0	0	0
2022-07-10	19:58:12	1	5	1	6.5.2	78	3	TNT_Think_CSm	TNT_Think_CSm	0	5	0	0	0	0	6000	5	Cue6.jpg	-16	0	0	0	0	0	0
2022-07-10	19:58:12	1	5	1	6.5.2	78	4	TNT_Think_CSm	Intrusion	0	500	3000	0	4	1	333	1	How <b>often</b> did you <b>think</b> about the <b>scene</b>?   <center><br><b>NEVER (1)    BRIEFLY (2)   OFTEN (3) </b>	-16	0	0	0	0	0	0
2022-07-10	19:58:12	1	5	1	6.5.2	79	1	TNT_Think_CSp	fixation	0	5	1500	0	0	1	1495	1	+	-11	0	0	0	0	0	0
2022-07-10	19:58:12	1	5	1	6.5.2	79	2	TNT_Think_CSp	Think	0	5	0	0	0	0	1000	1	THINK	-16	0	0	0	0	0	0
2022-07-10	19:58:12	1	5	1	6.5.2	79	3	TNT_Think_CSp	TNT_Think_CSp	0	5	0	0	0	0	6000	4	Cue34.jpg	-16	0	0	0	0	0	0
2022-07-10	19:58:12	1	5	1	6.5.2	79	4	TNT_Think_CSp	Intrusion	0	1000	3000	0	4	1	294	1	How <b>often</b> did you <b>think</b> about the <b>scene</b>?   <center><br><b>NEVER (1)    BRIEFLY (2)   OFTEN (3) </b>	-13	0	0	0	0	0	0
2022-07-10	19:58:12	1	5	1	6.5.2	80	1	TNT_Think_CSm	fixation	0	5	1000	0	0	1	995	1	+	-10	0	0	0	0	0	0
2022-07-10	19:58:12	1	5	1	6.5.2	80	2	TNT_Think_CSm	Think	0	5	0	0	0	0	1000	1	THINK	-16	0	0	0	0	0	0
2022-07-10	19:58:12	1	5	1	6.5.2	80	3	TNT_Think_CSm	TNT_Think_CSm	0	5	0	0	0	0	6000	6	Cue15.jpg	-16	0	0	0	0	0	0
2022-07-10	19:58:12	1	5	1	6.5.2	80	4	TNT_Think_CSm	Intrusion	0	1000	3000	0	4	1	380	1	How <b>often</b> did you <b>think</b> about the <b>scene</b>?   <center><br><b>NEVER (1)    BRIEFLY (2)   OFTEN (3) </b>	-16	0	0	0	0	0	0
2022-07-10	19:58:12	1	5	1	6.5.2	81	1	TNT_NoThink_CSp	fixation	0	5	1500	0	0	1	1495	1	+	-10	0	0	0	0	0	0
2022-07-10	19:58:12	1	5	1	6.5.2	81	2	TNT_NoThink_CSp	NoThink	0	5	0	0	0	0	1000	1	DON'T THINK	-16	0	0	0	0	0	0
2022-07-10	19:58:12	1	5	1	6.5.2	81	3	TNT_NoThink_CSp	TNT_NoThink_CSp	0	5	0	0	0	0	3000	1	Cue8.jpg	-16	0	0	0	0	0	0
2022-07-10	19:58:12	1	5	1	6.5.2	81	4	TNT_NoThink_CSp	Intrusion	0	1500	3000	0	2	1	1217	1	How <b>often</b> did you <b>think</b> about the <b>scene</b>?   <center><br><b>NEVER (1)    BRIEFLY (2)   OFTEN (3) </b>	-16	0	0	0	0	0	0
2022-07-10	19:58:12	1	5	1	6.5.2	82	1	TNT_NoThink_CSp	fixation	0	5	500	0	0	1	495	1	+	-11	0	0	0	0	0	0
2022-07-10	19:58:12	1	5	1	6.5.2	82	2	TNT_NoThink_CSp	NoThink	0	5	0	0	0	0	1000	1	DON'T THINK	-11	0	0	0	0	0	0
2022-07-10	19:58:12	1	5	1	6.5.2	82	3	TNT_NoThink_CSp	TNT_NoThink_CSp	0	5	0	0	0	0	3000	3	Cue1.jpg	-16	0	0	0	0	0	0
2022-07-10	19:58:12	1	5	1	6.5.2	82	4	TNT_NoThink_CSp	Intrusion	0	500	3000	0	2	1	846	1	How <b>often</b> did you <b>think</b> about the <b>scene</b>?   <center><br><b>NEVER (1)    BRIEFLY (2)   OFTEN (3) </b>	-16	0	0	0	0	0	0
2022-07-10	19:58:12	1	5	1	6.5.2	83	1	TNT_Object_CSp	fixation	0	5	500	0	0	1	495	1	+	-10	0	0	0	0	0	0
2022-07-10	19:58:12	1	5	1	6.5.2	83	2	TNT_Object_CSp	Passive	0	5	0	0	0	0	1000	1	VIEW	-11	0	0	0	0	0	0
2022-07-10	19:58:12	1	5	1	6.5.2	83	3	TNT_Object_CSp	TNT_Object_CSp	0	1500	0	0	0	0	3000	4	Object6.jpg	-16	0	0	0	0	0	0
2022-07-10	19:58:12	1	5	1	6.5.2	84	1	TNT_NoThink_CSm	fixation	0	5	1500	0	0	1	1495	1	+	-10	0	0	0	0	0	0
2022-07-10	19:58:12	1	5	1	6.5.2	84	2	TNT_NoThink_CSm	NoThink	0	5	0	0	0	0	1000	1	DON'T THINK	-13	0	0	0	0	0	0
2022-07-10	19:58:12	1	5	1	6.5.2	84	3	TNT_NoThink_CSm	TNT_NoThink_CSm	0	5	0	0	0	0	3000	1	Cue7.jpg	-16	0	0	0	0	0	0
2022-07-10	19:58:12	1	5	1	6.5.2	84	4	TNT_NoThink_CSm	Intrusion	0	1500	3000	0	3	1	1339	1	How <b>often</b> did you <b>think</b> about the <b>scene</b>?   <center><br><b>NEVER (1)    BRIEFLY (2)   OFTEN (3) </b>	-16	0	0	0	0	0	0
2022-07-10	19:58:12	1	5	1	6.5.2	85	1	TNT_NoThink_CSp	fixation	0	5	1000	0	0	1	995	1	+	-10	0	0	0	0	0	0
2022-07-10	19:58:12	1	5	1	6.5.2	85	2	TNT_NoThink_CSp	NoThink	0	5	0	0	0	0	1000	1	DON'T THINK	-11	0	0	0	0	0	0
2022-07-10	19:58:12	1	5	1	6.5.2	85	3	TNT_NoThink_CSp	TNT_NoThink_CSp	0	5	0	0	0	0	3000	5	Cue19.jpg	-16	0	0	0	0	0	0
2022-07-10	19:58:12	1	5	1	6.5.2	85	4	TNT_NoThink_CSp	Intrusion	0	500	3000	0	3	1	1557	1	How <b>often</b> did you <b>think</b> about the <b>scene</b>?   <center><br><b>NEVER (1)    BRIEFLY (2)   OFTEN (3) </b>	-16	0	0	0	0	0	0
2022-07-10	19:58:12	1	5	1	6.5.2	86	1	TNT_Object_CSp	fixation	0	5	1500	0	0	1	1495	1	+	-10	0	0	0	0	0	0
2022-07-10	19:58:12	1	5	1	6.5.2	86	2	TNT_Object_CSp	Passive	0	5	0	0	0	0	1000	1	VIEW	-16	0	0	0	0	0	0
2022-07-10	19:58:12	1	5	1	6.5.2	86	3	TNT_Object_CSp	TNT_Object_CSp	0	1000	0	0	0	0	3000	3	Object4.jpg	-16	0	0	0	0	0	0
2022-07-10	19:58:12	1	5	1	6.5.2	87	1	TNT_NoThink_CSp	fixation	0	5	1000	0	0	1	995	1	+	-11	0	0	0	0	0	0
2022-07-10	19:58:12	1	5	1	6.5.2	87	2	TNT_NoThink_CSp	NoThink	0	5	0	0	0	0	1000	1	DON'T THINK	-13	0	0	0	0	0	0
2022-07-10	19:58:12	1	5	1	6.5.2	87	3	TNT_NoThink_CSp	TNT_NoThink_CSp	0	5	0	0	0	0	3000	2	Cue9.jpg	-16	0	0	0	0	0	0
2022-07-10	19:58:12	1	5	1	6.5.2	87	4	TNT_NoThink_CSp	Intrusion	0	1000	3000	0	3	1	1228	1	How <b>often</b> did you <b>think</b> about the <b>scene</b>?   <center><br><b>NEVER (1)    BRIEFLY (2)   OFTEN (3) </b>	-16	0	0	0	0	0	0
2022-07-10	19:58:12	1	5	1	6.5.2	88	1	TNT_Object_CSm	fixation	0	5	500	0	0	1	495	1	+	-11	0	0	0	0	0	0
2022-07-10	19:58:12	1	5	1	6.5.2	88	2	TNT_Object_CSm	Passive	0	5	0	0	0	0	1000	1	VIEW	-16	0	0	0	0	0	0
2022-07-10	19:58:12	1	5	1	6.5.2	88	3	TNT_Object_CSm	TNT_Object_CSm	0	500	0	0	0	0	3000	4	Object2.jpg	-16	0	0	0	0	0	0
2022-07-10	19:58:12	1	5	1	6.5.2	89	1	TNT_Object_CSm	fixation	0	5	1000	0	0	1	995	1	+	-11	0	0	0	0	0	0
2022-07-10	19:58:12	1	5	1	6.5.2	89	2	TNT_Object_CSm	Passive	0	5	0	0	0	0	1000	1	VIEW	-16	0	0	0	0	0	0
2022-07-10	19:58:12	1	5	1	6.5.2	89	3	TNT_Object_CSm	TNT_Object_CSm	0	500	0	0	0	0	3000	3	Object3.jpg	-16	0	0	0	0	0	0
2022-07-10	19:58:12	1	5	1	6.5.2	90	1	TNT_NoThink_CSm	fixation	0	5	1500	0	0	1	1495	1	+	-11	0	0	0	0	0	0
2022-07-10	19:58:12	1	5	1	6.5.2	90	2	TNT_NoThink_CSm	NoThink	0	5	0	0	0	0	1000	1	DON'T THINK	-13	0	0	0	0	0	0
2022-07-10	19:58:12	1	5	1	6.5.2	90	3	TNT_NoThink_CSm	TNT_NoThink_CSm	0	5	0	0	0	0	3000	4	Cue25.jpg	-16	0	0	0	0	0	0
2022-07-10	19:58:12	1	5	1	6.5.2	90	4	TNT_NoThink_CSm	Intrusion	0	1000	3000	0	2	1	440	1	How <b>often</b> did you <b>think</b> about the <b>scene</b>?   <center><br><b>NEVER (1)    BRIEFLY (2)   OFTEN (3) </b>	-16	0	0	0	0	0	0
2022-07-10	19:58:12	1	5	1	6.5.2	91	1	TNT_NoThink_CSm	fixation	0	5	500	0	0	1	495	1	+	-10	0	0	0	0	0	0
2022-07-10	19:58:12	1	5	1	6.5.2	91	2	TNT_NoThink_CSm	NoThink	0	5	0	0	0	0	1000	1	DON'T THINK	-11	0	0	0	0	0	0
2022-07-10	19:58:12	1	5	1	6.5.2	91	3	TNT_NoThink_CSm	TNT_NoThink_CSm	0	5	0	0	0	0	3000	5	Cue14.jpg	-16	0	0	0	0	0	0
2022-07-10	19:58:12	1	5	1	6.5.2	91	4	TNT_NoThink_CSm	Intrusion	0	500	3000	0	2	1	338	1	How <b>often</b> did you <b>think</b> about the <b>scene</b>?   <center><br><b>NEVER (1)    BRIEFLY (2)   OFTEN (3) </b>	-16	0	0	0	0	0	0
2022-07-10	19:58:12	1	5	1	6.5.2	92	1	TNT_Object_CSm	fixation	0	5	500	0	0	1	495	1	+	-10	0	0	0	0	0	0
2022-07-10	19:58:12	1	5	1	6.5.2	92	2	TNT_Object_CSm	Passive	0	5	0	0	0	0	1000	1	VIEW	-11	0	0	0	0	0	0
2022-07-10	19:58:12	1	5	1	6.5.2	92	3	TNT_Object_CSm	TNT_Object_CSm	0	1000	0	0	0	0	3000	2	Object7.jpg	-16	0	0	0	0	0	0
2022-07-10	19:58:12	1	5	1	6.5.2	93	1	TNT_Think_CSp	fixation	0	5	1000	0	0	1	995	1	+	-10	0	0	0	0	0	0
2022-07-10	19:58:12	1	5	1	6.5.2	93	2	TNT_Think_CSp	Think	0	5	0	0	0	0	1000	1	THINK	-16	0	0	0	0	0	0
2022-07-10	19:58:12	1	5	1	6.5.2	93	3	TNT_Think_CSp	TNT_Think_CSp	0	5	0	0	0	0	6000	5	Cue22.jpg	-16	0	0	0	0	0	0
2022-07-10	19:58:12	1	5	1	6.5.2	93	4	TNT_Think_CSp	Intrusion	0	1500	3000	0	4	1	277	1	How <b>often</b> did you <b>think</b> about the <b>scene</b>?   <center><br><b>NEVER (1)    BRIEFLY (2)   OFTEN (3) </b>	-16	0	0	0	0	0	0
2022-07-10	19:58:12	1	5	1	6.5.2	94	1	TNT_Object_CSm	fixation	0	5	1500	0	0	1	1495	1	+	-11	0	0	0	0	0	0
2022-07-10	19:58:12	1	5	1	6.5.2	94	2	TNT_Object_CSm	Passive	0	5	0	0	0	0	1000	1	VIEW	-16	0	0	0	0	0	0
2022-07-10	19:58:12	1	5	1	6.5.2	94	3	TNT_Object_CSm	TNT_Object_CSm	0	1500	0	0	0	0	3000	1	Object1.jpg	-16	0	0	0	0	0	0
2022-07-10	19:58:12	1	5	1	6.5.2	95	1	TNT_NoThink_CSp	fixation	0	5	1500	0	0	1	1495	1	+	-10	0	0	0	0	0	0
2022-07-10	19:58:12	1	5	1	6.5.2	95	2	TNT_NoThink_CSp	NoThink	0	5	0	0	0	0	1000	1	DON'T THINK	-16	0	0	0	0	0	0
2022-07-10	19:58:12	1	5	1	6.5.2	95	3	TNT_NoThink_CSp	TNT_NoThink_CSp	0	5	0	0	0	0	3000	6	Cue2.jpg	-16	0	0	0	0	0	0
2022-07-10	19:58:12	1	5	1	6.5.2	95	4	TNT_NoThink_CSp	Intrusion	0	500	3000	0	3	1	1426	1	How <b>often</b> did you <b>think</b> about the <b>scene</b>?   <center><br><b>NEVER (1)    BRIEFLY (2)   OFTEN (3) </b>	-16	0	0	0	0	0	0
2022-07-10	19:58:12	1	5	1	6.5.2	96	1	TNT_Think_CSm	fixation	0	5	1000	0	0	1	995	1	+	-10	0	0	0	0	0	0
2022-07-10	19:58:12	1	5	1	6.5.2	96	2	TNT_Think_CSm	Think	0	5	0	0	0	0	1000	1	THINK	-16	0	0	0	0	0	0
2022-07-10	19:58:12	1	5	1	6.5.2	96	3	TNT_Think_CSm	TNT_Think_CSm	0	5	0	0	0	0	6000	4	Cue21.jpg	-16	0	0	0	0	0	0
2022-07-10	19:58:12	1	5	1	6.5.2	96	4	TNT_Think_CSm	Intrusion	0	1000	3000	0	4	1	309	1	How <b>often</b> did you <b>think</b> about the <b>scene</b>?   <center><br><b>NEVER (1)    BRIEFLY (2)   OFTEN (3) </b>	-16	0	0	0	0	0	0
2022-07-10	19:58:12	1	5	1	6.5.2	97	1	TNT_Think_CSm	fixation	0	5	500	0	0	1	495	1	+	-10	0	0	0	0	0	0
2022-07-10	19:58:12	1	5	1	6.5.2	97	2	TNT_Think_CSm	Think	0	5	0	0	0	0	1000	1	THINK	-16	0	0	0	0	0	0
2022-07-10	19:58:12	1	5	1	6.5.2	97	3	TNT_Think_CSm	TNT_Think_CSm	0	5	0	0	0	0	6000	1	Cue33.jpg	-16	0	0	0	0	0	0
2022-07-10	19:58:12	1	5	1	6.5.2	97	4	TNT_Think_CSm	Intrusion	0	1500	3000	0	4	1	651	1	How <b>often</b> did you <b>think</b> about the <b>scene</b>?   <center><br><b>NEVER (1)    BRIEFLY (2)   OFTEN (3) </b>	-16	0	0	0	0	0	0
2022-07-10	19:58:12	1	5	1	6.5.2	98	1	TNT_Object_CSm	fixation	0	5	1500	0	0	1	1495	1	+	-11	0	0	0	0	0	0
2022-07-10	19:58:12	1	5	1	6.5.2	98	2	TNT_Object_CSm	Passive	0	5	0	0	0	0	1000	1	VIEW	-16	0	0	0	0	0	0
2022-07-10	19:58:12	1	5	1	6.5.2	98	3	TNT_Object_CSm	TNT_Object_CSm	0	1000	0	0	0	0	3000	2	Object7.jpg	-16	0	0	0	0	0	0
2022-07-10	19:58:12	1	5	1	6.5.2	99	1	TNT_NoThink_CSm	fixation	0	5	1000	0	0	1	995	1	+	-11	0	0	0	0	0	0
2022-07-10	19:58:12	1	5	1	6.5.2	99	2	TNT_NoThink_CSm	NoThink	0	5	0	0	0	0	1000	1	DON'T THINK	-13	0	0	0	0	0	0
2022-07-10	19:58:12	1	5	1	6.5.2	99	3	TNT_NoThink_CSm	TNT_NoThink_CSm	0	5	0	0	0	0	3000	2	Cue35.jpg	-16	0	0	0	0	0	0
2022-07-10	19:58:12	1	5	1	6.5.2	99	4	TNT_NoThink_CSm	Intrusion	0	1500	3000	0	3	1	1105	1	How <b>often</b> did you <b>think</b> about the <b>scene</b>?   <center><br><b>NEVER (1)    BRIEFLY (2)   OFTEN (3) </b>	-16	0	0	0	0	0	0
2022-07-10	19:58:12	1	5	1	6.5.2	100	1	TNT_Object_CSp	fixation	0	5	500	0	0	1	495	1	+	-10	0	0	0	0	0	0
2022-07-10	19:58:12	1	5	1	6.5.2	100	2	TNT_Object_CSp	Passive	0	5	0	0	0	0	1000	1	VIEW	-16	0	0	0	0	0	0
2022-07-10	19:58:12	1	5	1	6.5.2	100	3	TNT_Object_CSp	TNT_Object_CSp	0	1000	0	0	0	0	3000	4	Object6.jpg	-16	0	0	0	0	0	0
2022-07-10	19:58:12	1	5	1	6.5.2	101	1	TNT_Think_CSp	fixation	0	5	500	0	0	1	495	1	+	-10	0	0	0	0	0	0
2022-07-10	19:58:12	1	5	1	6.5.2	101	2	TNT_Think_CSp	Think	0	5	0	0	0	0	1000	1	THINK	-16	0	0	0	0	0	0
2022-07-10	19:58:12	1	5	1	6.5.2	101	3	TNT_Think_CSp	TNT_Think_CSp	0	5	0	0	0	0	6000	3	Cue12.jpg	-16	0	0	0	0	0	0
2022-07-10	19:58:12	1	5	1	6.5.2	101	4	TNT_Think_CSp	Intrusion	0	500	3000	0	4	1	261	1	How <b>often</b> did you <b>think</b> about the <b>scene</b>?   <center><br><b>NEVER (1)    BRIEFLY (2)   OFTEN (3) </b>	-16	0	0	0	0	0	0
2022-07-10	19:58:12	1	5	1	6.5.2	102	1	TNT_NoThink_CSp	fixation	0	5	1500	0	0	1	1495	1	+	-10	0	0	0	0	0	0
2022-07-10	19:58:12	1	5	1	6.5.2	102	2	TNT_NoThink_CSp	NoThink	0	5	0	0	0	0	1000	1	DON'T THINK	-16	0	0	0	0	0	0
2022-07-10	19:58:12	1	5	1	6.5.2	102	3	TNT_NoThink_CSp	TNT_NoThink_CSp	0	5	0	0	0	0	3000	3	Cue1.jpg	-16	0	0	0	0	0	0
2022-07-10	19:58:12	1	5	1	6.5.2	102	4	TNT_NoThink_CSp	Intrusion	0	1000	3000	0	2	1	774	1	How <b>often</b> did you <b>think</b> about the <b>scene</b>?   <center><br><b>NEVER (1)    BRIEFLY (2)   OFTEN (3) </b>	-16	0	0	0	0	0	0
2022-07-10	19:58:12	1	5	1	6.5.2	103	1	TNT_Object_CSm	fixation	0	5	1000	0	0	1	995	1	+	-11	0	0	0	0	0	0
2022-07-10	19:58:12	1	5	1	6.5.2	103	2	TNT_Object_CSm	Passive	0	5	0	0	0	0	1000	1	VIEW	-11	0	0	0	0	0	0
2022-07-10	19:58:12	1	5	1	6.5.2	103	3	TNT_Object_CSm	TNT_Object_CSm	0	500	0	0	0	0	3000	3	Object3.jpg	-16	0	0	0	0	0	0
2022-07-10	19:58:12	1	5	1	6.5.2	104	1	TNT_Think_CSp	fixation	0	5	500	0	0	1	495	1	+	-10	0	0	0	0	0	0
2022-07-10	19:58:12	1	5	1	6.5.2	104	2	TNT_Think_CSp	Think	0	5	0	0	0	0	1000	1	THINK	-16	0	0	0	0	0	0
2022-07-10	19:58:12	1	5	1	6.5.2	104	3	TNT_Think_CSp	TNT_Think_CSp	0	5	0	0	0	0	6000	1	Cue32.jpg	-16	0	0	0	0	0	0
2022-07-10	19:58:12	1	5	1	6.5.2	104	4	TNT_Think_CSp	Intrusion	0	500	3000	0	4	1	240	1	How <b>often</b> did you <b>think</b> about the <b>scene</b>?   <center><br><b>NEVER (1)    BRIEFLY (2)   OFTEN (3) </b>	-16	0	0	0	0	0	0
2022-07-10	19:58:12	1	5	1	6.5.2	105	1	TNT_Object_CSm	fixation	0	5	1000	0	0	1	995	1	+	-11	0	0	0	0	0	0
2022-07-10	19:58:12	1	5	1	6.5.2	105	2	TNT_Object_CSm	Passive	0	5	0	0	0	0	1000	1	VIEW	-16	0	0	0	0	0	0
2022-07-10	19:58:12	1	5	1	6.5.2	105	3	TNT_Object_CSm	TNT_Object_CSm	0	1500	0	0	0	0	3000	1	Object1.jpg	-16	0	0	0	0	0	0
2022-07-10	19:58:12	1	5	1	6.5.2	106	1	TNT_Think_CSp	fixation	0	5	1500	0	0	1	1495	1	+	-10	0	0	0	0	0	0
2022-07-10	19:58:12	1	5	1	6.5.2	106	2	TNT_Think_CSp	Think	0	5	0	0	0	0	1000	1	THINK	-10	0	0	0	0	0	0
2022-07-10	19:58:12	1	5	1	6.5.2	106	3	TNT_Think_CSp	TNT_Think_CSp	0	5	0	0	0	0	6000	4	Cue34.jpg	-16	0	0	0	0	0	0
2022-07-10	19:58:12	1	5	1	6.5.2	106	4	TNT_Think_CSp	Intrusion	0	1500	3000	0	4	1	200	1	How <b>often</b> did you <b>think</b> about the <b>scene</b>?   <center><br><b>NEVER (1)    BRIEFLY (2)   OFTEN (3) </b>	-16	0	0	0	0	0	0
2022-07-10	19:58:12	1	5	1	6.5.2	107	1	TNT_Think_CSp	fixation	0	5	500	0	0	1	495	1	+	-10	0	0	0	0	0	0
2022-07-10	19:58:12	1	5	1	6.5.2	107	2	TNT_Think_CSp	Think	0	5	0	0	0	0	1000	1	THINK	-16	0	0	0	0	0	0
2022-07-10	19:58:12	1	5	1	6.5.2	107	3	TNT_Think_CSp	TNT_Think_CSp	0	5	0	0	0	0	6000	2	Cue26.jpg	-16	0	0	0	0	0	0
2022-07-10	19:58:12	1	5	1	6.5.2	107	4	TNT_Think_CSp	Intrusion	0	1000	3000	0	4	1	516	1	How <b>often</b> did you <b>think</b> about the <b>scene</b>?   <center><br><b>NEVER (1)    BRIEFLY (2)   OFTEN (3) </b>	-16	0	0	0	0	0	0
2022-07-10	19:58:12	1	5	1	6.5.2	108	1	TNT_NoThink_CSm	fixation	0	5	1500	0	0	1	1495	1	+	-10	0	0	0	0	0	0
2022-07-10	19:58:12	1	5	1	6.5.2	108	2	TNT_NoThink_CSm	NoThink	0	5	0	0	0	0	1000	1	DON'T THINK	-16	0	0	0	0	0	0
2022-07-10	19:58:12	1	5	1	6.5.2	108	3	TNT_NoThink_CSm	TNT_NoThink_CSm	0	5	0	0	0	0	3000	3	Cue36.jpg	-16	0	0	0	0	0	0
2022-07-10	19:58:12	1	5	1	6.5.2	108	4	TNT_NoThink_CSm	Intrusion	0	1500	3000	0	3	1	1011	1	How <b>often</b> did you <b>think</b> about the <b>scene</b>?   <center><br><b>NEVER (1)    BRIEFLY (2)   OFTEN (3) </b>	-16	0	0	0	0	0	0
2022-07-10	19:58:12	1	5	1	6.5.2	109	1	TNT_NoThink_CSp	fixation	0	5	1000	0	0	1	995	1	+	-10	0	0	0	0	0	0
2022-07-10	19:58:12	1	5	1	6.5.2	109	2	TNT_NoThink_CSp	NoThink	0	5	0	0	0	0	1000	1	DON'T THINK	-10	0	0	0	0	0	0
2022-07-10	19:58:12	1	5	1	6.5.2	109	3	TNT_NoThink_CSp	TNT_NoThink_CSp	0	5	0	0	0	0	3000	1	Cue8.jpg	-16	0	0	0	0	0	0
2022-07-10	19:58:12	1	5	1	6.5.2	109	4	TNT_NoThink_CSp	Intrusion	0	500	3000	0	2	1	378	1	How <b>often</b> did you <b>think</b> about the <b>scene</b>?   <center><br><b>NEVER (1)    BRIEFLY (2)   OFTEN (3) </b>	-16	0	0	0	0	0	0
2022-07-10	19:58:12	1	5	1	6.5.2	110	1	TNT_NoThink_CSm	fixation	0	5	1500	0	0	1	1495	1	+	-11	0	0	0	0	0	0
2022-07-10	19:58:12	1	5	1	6.5.2	110	2	TNT_NoThink_CSm	NoThink	0	5	0	0	0	0	1000	1	DON'T THINK	-16	0	0	0	0	0	0
2022-07-10	19:58:12	1	5	1	6.5.2	110	3	TNT_NoThink_CSm	TNT_NoThink_CSm	0	5	0	0	0	0	3000	5	Cue14.jpg	-16	0	0	0	0	0	0
2022-07-10	19:58:12	1	5	1	6.5.2	110	4	TNT_NoThink_CSm	Intrusion	0	1000	3000	0	2	1	431	1	How <b>often</b> did you <b>think</b> about the <b>scene</b>?   <center><br><b>NEVER (1)    BRIEFLY (2)   OFTEN (3) </b>	-16	0	0	0	0	0	0
2022-07-10	19:58:12	1	5	1	6.5.2	111	1	TNT_NoThink_CSp	fixation	0	5	500	0	0	1	495	1	+	-10	0	0	0	0	0	0
2022-07-10	19:58:12	1	5	1	6.5.2	111	2	TNT_NoThink_CSp	NoThink	0	5	0	0	0	0	1000	1	DON'T THINK	-10	0	0	0	0	0	0
2022-07-10	19:58:12	1	5	1	6.5.2	111	3	TNT_NoThink_CSp	TNT_NoThink_CSp	0	5	0	0	0	0	3000	2	Cue9.jpg	-16	0	0	0	0	0	0
2022-07-10	19:58:12	1	5	1	6.5.2	111	4	TNT_NoThink_CSp	Intrusion	0	500	3000	0	2	1	1346	1	How <b>often</b> did you <b>think</b> about the <b>scene</b>?   <center><br><b>NEVER (1)    BRIEFLY (2)   OFTEN (3) </b>	-16	0	0	0	0	0	0
2022-07-10	19:58:12	1	5	1	6.5.2	112	1	TNT_Think_CSp	fixation	0	5	1000	0	0	1	995	1	+	-10	0	0	0	0	0	0
2022-07-10	19:58:12	1	5	1	6.5.2	112	2	TNT_Think_CSp	Think	0	5	0	0	0	0	1000	1	THINK	-16	0	0	0	0	0	0
2022-07-10	19:58:12	1	5	1	6.5.2	112	3	TNT_Think_CSp	TNT_Think_CSp	0	5	0	0	0	0	6000	6	Cue10.jpg	-16	0	0	0	0	0	0
2022-07-10	19:58:12	1	5	1	6.5.2	112	4	TNT_Think_CSp	Intrusion	0	1000	3000	0	4	1	339	1	How <b>often</b> did you <b>think</b> about the <b>scene</b>?   <center><br><b>NEVER (1)    BRIEFLY (2)   OFTEN (3) </b>	-16	0	0	0	0	0	0
2022-07-10	19:58:12	1	5	1	6.5.2	113	1	TNT_Think_CSm	fixation	0	5	500	0	0	1	495	1	+	-10	0	0	0	0	0	0
2022-07-10	19:58:12	1	5	1	6.5.2	113	2	TNT_Think_CSm	Think	0	5	0	0	0	0	1000	1	THINK	-16	0	0	0	0	0	0
2022-07-10	19:58:12	1	5	1	6.5.2	113	3	TNT_Think_CSm	TNT_Think_CSm	0	5	0	0	0	0	6000	6	Cue15.jpg	-16	0	0	0	0	0	0
2022-07-10	19:58:12	1	5	1	6.5.2	113	4	TNT_Think_CSm	Intrusion	0	1500	3000	0	0	0	1500	1	How <b>often</b> did you <b>think</b> about the <b>scene</b>?   <center><br><b>NEVER (1)    BRIEFLY (2)   OFTEN (3) </b>	-16	0	0	0	0	0	0
2022-07-10	19:58:12	1	5	1	6.5.2	114	1	TNT_NoThink_CSm	fixation	0	5	1500	0	0	1	1495	1	+	-10	0	0	0	0	0	0
2022-07-10	19:58:12	1	5	1	6.5.2	114	2	TNT_NoThink_CSm	NoThink	0	5	0	0	0	0	1000	1	DON'T THINK	-16	0	0	0	0	0	0
2022-07-10	19:58:12	1	5	1	6.5.2	114	3	TNT_NoThink_CSm	TNT_NoThink_CSm	0	5	0	0	0	0	3000	6	Cue3.jpg	-16	0	0	0	0	0	0
2022-07-10	19:58:12	1	5	1	6.5.2	114	4	TNT_NoThink_CSm	Intrusion	0	1500	3000	0	0	0	1500	1	How <b>often</b> did you <b>think</b> about the <b>scene</b>?   <center><br><b>NEVER (1)    BRIEFLY (2)   OFTEN (3) </b>	-16	0	0	0	0	0	0
2022-07-10	19:58:12	1	5	1	6.5.2	115	1	TNT_Object_CSp	fixation	0	5	1000	0	0	1	995	1	+	-10	0	0	0	0	0	0
2022-07-10	19:58:12	1	5	1	6.5.2	115	2	TNT_Object_CSp	Passive	0	5	0	0	0	0	1000	1	VIEW	-11	0	0	0	0	0	0
2022-07-10	19:58:12	1	5	1	6.5.2	115	3	TNT_Object_CSp	TNT_Object_CSp	0	1500	0	0	0	0	3000	3	Object4.jpg	-16	0	0	0	0	0	0
2022-07-10	19:58:12	1	5	1	6.5.2	116	1	TNT_Think_CSm	fixation	0	5	1500	0	0	1	1495	1	+	-10	0	0	0	0	0	0
2022-07-10	19:58:12	1	5	1	6.5.2	116	2	TNT_Think_CSm	Think	0	5	0	0	0	0	1000	1	THINK	-10	0	0	0	0	0	0
2022-07-10	19:58:12	1	5	1	6.5.2	116	3	TNT_Think_CSm	TNT_Think_CSm	0	5	0	0	0	0	6000	3	Cue13.jpg	-16	0	0	0	0	0	0
2022-07-10	19:58:12	1	5	1	6.5.2	116	4	TNT_Think_CSm	Intrusion	0	1000	3000	0	0	0	2000	1	How <b>often</b> did you <b>think</b> about the <b>scene</b>?   <center><br><b>NEVER (1)    BRIEFLY (2)   OFTEN (3) </b>	-16	0	0	0	0	0	0
2022-07-10	19:58:12	1	5	1	6.5.2	117	1	TNT_Think_CSm	fixation	0	5	500	0	0	1	495	1	+	-11	0	0	0	0	0	0
2022-07-10	19:58:12	1	5	1	6.5.2	117	2	TNT_Think_CSm	Think	0	5	0	0	0	0	1000	1	THINK	-16	0	0	0	0	0	0
2022-07-10	19:58:12	1	5	1	6.5.2	117	3	TNT_Think_CSm	TNT_Think_CSm	0	5	0	0	0	0	6000	5	Cue6.jpg	-16	0	0	0	0	0	0
2022-07-10	19:58:12	1	5	1	6.5.2	117	4	TNT_Think_CSm	Intrusion	0	500	3000	0	4	1	610	1	How <b>often</b> did you <b>think</b> about the <b>scene</b>?   <center><br><b>NEVER (1)    BRIEFLY (2)   OFTEN (3) </b>	-16	0	0	0	0	0	0
2022-07-10	19:58:12	1	5	1	6.5.2	118	1	TNT_Object_CSp	fixation	0	5	1000	0	0	1	995	1	+	-10	0	0	0	0	0	0
2022-07-10	19:58:12	1	5	1	6.5.2	118	2	TNT_Object_CSp	Passive	0	5	0	0	0	0	1000	1	VIEW	-16	0	0	0	0	0	0
2022-07-10	19:58:12	1	5	1	6.5.2	118	3	TNT_Object_CSp	TNT_Object_CSp	0	500	0	0	0	0	3000	2	Object5.jpg	-16	0	0	0	0	0	0
2022-07-10	19:58:12	1	5	1	6.5.2	119	1	TNT_NoThink_CSm	fixation	0	5	500	0	0	1	495	1	+	-11	0	0	0	0	0	0
2022-07-10	19:58:12	1	5	1	6.5.2	119	2	TNT_NoThink_CSm	NoThink	0	5	0	0	0	0	1000	1	DON'T THINK	-16	0	0	0	0	0	0
2022-07-10	19:58:12	1	5	1	6.5.2	119	3	TNT_NoThink_CSm	TNT_NoThink_CSm	0	5	0	0	0	0	3000	4	Cue25.jpg	-16	0	0	0	0	0	0
2022-07-10	19:58:12	1	5	1	6.5.2	119	4	TNT_NoThink_CSm	Intrusion	0	1000	3000	0	3	1	612	1	How <b>often</b> did you <b>think</b> about the <b>scene</b>?   <center><br><b>NEVER (1)    BRIEFLY (2)   OFTEN (3) </b>	-16	0	0	0	0	0	0
2022-07-10	19:58:12	1	5	1	6.5.2	120	1	TNT_Object_CSm	fixation	0	5	1000	0	0	1	995	1	+	-10	0	0	0	0	0	0
2022-07-10	19:58:12	1	5	1	6.5.2	120	2	TNT_Object_CSm	Passive	0	5	0	0	0	0	1000	1	VIEW	-11	0	0	0	0	0	0
2022-07-10	19:58:12	1	5	1	6.5.2	120	3	TNT_Object_CSm	TNT_Object_CSm	0	500	0	0	0	0	3000	4	Object2.jpg	-16	0	0	0	0	0	0
2022-07-10	19:58:12	1	5	1	6.5.2	121	1	TNT_Think_CSm	fixation	0	5	1500	0	0	1	1495	1	+	-11	0	0	0	0	0	0
2022-07-10	19:58:12	1	5	1	6.5.2	121	2	TNT_Think_CSm	Think	0	5	0	0	0	0	1000	1	THINK	-16	0	0	0	0	0	0
2022-07-10	19:58:12	1	5	1	6.5.2	121	3	TNT_Think_CSm	TNT_Think_CSm	0	5	0	0	0	0	6000	4	Cue21.jpg	-16	0	0	0	0	0	0
2022-07-10	19:58:12	1	5	1	6.5.2	121	4	TNT_Think_CSm	Intrusion	0	500	3000	0	4	1	256	1	How <b>often</b> did you <b>think</b> about the <b>scene</b>?   <center><br><b>NEVER (1)    BRIEFLY (2)   OFTEN (3) </b>	-16	0	0	0	0	0	0
2022-07-10	19:58:12	1	5	1	6.5.2	122	1	TNT_Think_CSp	fixation	0	5	1500	0	0	1	1495	1	+	-10	0	0	0	0	0	0
2022-07-10	19:58:12	1	5	1	6.5.2	122	2	TNT_Think_CSp	Think	0	5	0	0	0	0	1000	1	THINK	-16	0	0	0	0	0	0
2022-07-10	19:58:12	1	5	1	6.5.2	122	3	TNT_Think_CSp	TNT_Think_CSp	0	5	0	0	0	0	6000	5	Cue22.jpg	-16	0	0	0	0	0	0
2022-07-10	19:58:12	1	5	1	6.5.2	122	4	TNT_Think_CSp	Intrusion	0	1500	3000	0	4	1	1061	1	How <b>often</b> did you <b>think</b> about the <b>scene</b>?   <center><br><b>NEVER (1)    BRIEFLY (2)   OFTEN (3) </b>	-16	0	0	0	0	0	0
2022-07-10	19:58:12	1	5	1	6.5.2	123	1	TNT_NoThink_CSm	fixation	0	5	1000	0	0	1	995	1	+	-10	0	0	0	0	0	0
2022-07-10	19:58:12	1	5	1	6.5.2	123	2	TNT_NoThink_CSm	NoThink	0	5	0	0	0	0	1000	1	DON'T THINK	-16	0	0	0	0	0	0
2022-07-10	19:58:12	1	5	1	6.5.2	123	3	TNT_NoThink_CSm	TNT_NoThink_CSm	0	5	0	0	0	0	3000	1	Cue7.jpg	-16	0	0	0	0	0	0
2022-07-10	19:58:12	1	5	1	6.5.2	123	4	TNT_NoThink_CSm	Intrusion	0	1500	3000	0	3	1	1170	1	How <b>often</b> did you <b>think</b> about the <b>scene</b>?   <center><br><b>NEVER (1)    BRIEFLY (2)   OFTEN (3) </b>	-16	0	0	0	0	0	0
2022-07-10	19:58:12	1	5	1	6.5.2	124	1	TNT_NoThink_CSp	fixation	0	5	500	0	0	1	495	1	+	-10	0	0	0	0	0	0
2022-07-10	19:58:12	1	5	1	6.5.2	124	2	TNT_NoThink_CSp	NoThink	0	5	0	0	0	0	1000	1	DON'T THINK	-11	0	0	0	0	0	0
2022-07-10	19:58:12	1	5	1	6.5.2	124	3	TNT_NoThink_CSp	TNT_NoThink_CSp	0	5	0	0	0	0	3000	6	Cue2.jpg	-16	0	0	0	0	0	0
2022-07-10	19:58:12	1	5	1	6.5.2	124	4	TNT_NoThink_CSp	Intrusion	0	1000	3000	0	2	1	1000	1	How <b>often</b> did you <b>think</b> about the <b>scene</b>?   <center><br><b>NEVER (1)    BRIEFLY (2)   OFTEN (3) </b>	-16	0	0	0	0	0	0
2022-07-10	19:58:12	1	5	1	6.5.2	125	1	TNT_NoThink_CSp	fixation	0	5	1000	0	0	1	995	1	+	-11	0	0	0	0	0	0
2022-07-10	19:58:12	1	5	1	6.5.2	125	2	TNT_NoThink_CSp	NoThink	0	5	0	0	0	0	1000	1	DON'T THINK	-16	0	0	0	0	0	0
2022-07-10	19:58:12	1	5	1	6.5.2	125	3	TNT_NoThink_CSp	TNT_NoThink_CSp	0	5	0	0	0	0	3000	5	Cue19.jpg	-16	0	0	0	0	0	0
2022-07-10	19:58:12	1	5	1	6.5.2	125	4	TNT_NoThink_CSp	Intrusion	0	500	3000	0	2	1	1819	1	How <b>often</b> did you <b>think</b> about the <b>scene</b>?   <center><br><b>NEVER (1)    BRIEFLY (2)   OFTEN (3) </b>	-16	0	0	0	0	0	0
2022-07-10	19:58:12	1	5	1	6.5.2	126	1	TNT_Think_CSm	fixation	0	5	500	0	0	1	495	1	+	-10	0	0	0	0	0	0
2022-07-10	19:58:12	1	5	1	6.5.2	126	2	TNT_Think_CSm	Think	0	5	0	0	0	0	1000	1	THINK	-11	0	0	0	0	0	0
2022-07-10	19:58:12	1	5	1	6.5.2	126	3	TNT_Think_CSm	TNT_Think_CSm	0	5	0	0	0	0	6000	2	Cue24.jpg	-16	0	0	0	0	0	0
2022-07-10	19:58:12	1	5	1	6.5.2	126	4	TNT_Think_CSm	Intrusion	0	1500	3000	0	4	1	200	1	How <b>often</b> did you <b>think</b> about the <b>scene</b>?   <center><br><b>NEVER (1)    BRIEFLY (2)   OFTEN (3) </b>	-16	0	0	0	0	0	0
2022-07-10	19:58:12	1	5	1	6.5.2	127	1	TNT_Object_CSp	fixation	0	5	1500	0	0	1	1495	1	+	-11	0	0	0	0	0	0
2022-07-10	19:58:12	1	5	1	6.5.2	127	2	TNT_Object_CSp	Passive	0	5	0	0	0	0	1000	1	VIEW	-10	0	0	0	0	0	0
2022-07-10	19:58:12	1	5	1	6.5.2	127	3	TNT_Object_CSp	TNT_Object_CSp	0	1000	0	0	0	0	3000	1	Object8.jpg	-16	0	0	0	0	0	0
2022-07-10	19:58:12	1	5	1	6.5.2	128	1	TNT_Think_CSm	fixation	0	5	500	0	0	1	495	1	+	-11	0	0	0	0	0	0
2022-07-10	19:58:12	1	5	1	6.5.2	128	2	TNT_Think_CSm	Think	0	5	0	0	0	0	1000	1	THINK	-16	0	0	0	0	0	0
2022-07-10	19:58:12	1	5	1	6.5.2	128	3	TNT_Think_CSm	TNT_Think_CSm	0	5	0	0	0	0	6000	1	Cue33.jpg	-16	0	0	0	0	0	0
2022-07-10	19:58:12	1	5	1	6.5.2	128	4	TNT_Think_CSm	Intrusion	0	500	3000	0	4	1	208	1	How <b>often</b> did you <b>think</b> about the <b>scene</b>?   <center><br><b>NEVER (1)    BRIEFLY (2)   OFTEN (3) </b>	-16	0	0	0	0	0	0
2022-07-10	19:58:12	1	5	1	6.5.2	129	1	TNT_NoThink_CSp	fixation	0	5	1500	0	0	1	1495	1	+	-10	0	0	0	0	0	0
2022-07-10	19:58:12	1	5	1	6.5.2	129	2	TNT_NoThink_CSp	NoThink	0	5	0	0	0	0	1000	1	DON'T THINK	-11	0	0	0	0	0	0
2022-07-10	19:58:12	1	5	1	6.5.2	129	3	TNT_NoThink_CSp	TNT_NoThink_CSp	0	5	0	0	0	0	3000	4	Cue18.jpg	-16	0	0	0	0	0	0
2022-07-10	19:58:12	1	5	1	6.5.2	129	4	TNT_NoThink_CSp	Intrusion	0	1000	3000	0	2	1	1137	1	How <b>often</b> did you <b>think</b> about the <b>scene</b>?   <center><br><b>NEVER (1)    BRIEFLY (2)   OFTEN (3) </b>	-10	0	0	0	0	0	0
2022-07-10	19:58:12	1	5	1	6.5.2	130	1	between_TNT	between_TNT	0	5	0	0	0	0	15000	1	<center> <br><br><br>This is the end of the block. <br><br> You have a 15 second break.	-10	0	0	0	0	0	0
2022-07-10	19:58:12	1	5	1	6.5.2	131	1	TNT_Object_CSm	fixation	0	5	1000	0	0	1	995	1	+	-11	0	0	0	0	0	0
2022-07-10	19:58:12	1	5	1	6.5.2	131	2	TNT_Object_CSm	Passive	0	5	0	0	0	0	1000	1	VIEW	-10	0	0	0	0	0	0
2022-07-10	19:58:12	1	5	1	6.5.2	131	3	TNT_Object_CSm	TNT_Object_CSm	0	1500	0	0	0	0	3000	2	Object7.jpg	-16	0	0	0	0	0	0
2022-07-10	19:58:12	1	5	1	6.5.2	132	1	TNT_NoThink_CSp	fixation	0	5	1000	0	0	1	995	1	+	-11	0	0	0	0	0	0
2022-07-10	19:58:12	1	5	1	6.5.2	132	2	TNT_NoThink_CSp	NoThink	0	5	0	0	0	0	1000	1	DON'T THINK	-16	0	0	0	0	0	0
2022-07-10	19:58:12	1	5	1	6.5.2	132	3	TNT_NoThink_CSp	TNT_NoThink_CSp	0	5	0	0	0	0	3000	6	Cue2.jpg	-16	0	0	0	0	0	0
2022-07-10	19:58:12	1	5	1	6.5.2	132	4	TNT_NoThink_CSp	Intrusion	0	1000	3000	0	2	1	1593	1	How <b>often</b> did you <b>think</b> about the <b>scene</b>?   <center><br><b>NEVER (1)    BRIEFLY (2)   OFTEN (3) </b>	-10	0	0	0	0	0	0
2022-07-10	19:58:12	1	5	1	6.5.2	133	1	TNT_Think_CSm	fixation	0	5	500	0	0	1	495	1	+	-10	0	0	0	0	0	0
2022-07-10	19:58:12	1	5	1	6.5.2	133	2	TNT_Think_CSm	Think	0	5	0	0	0	0	1000	1	THINK	-10	0	0	0	0	0	0
2022-07-10	19:58:12	1	5	1	6.5.2	133	3	TNT_Think_CSm	TNT_Think_CSm	0	5	0	0	0	0	6000	2	Cue24.jpg	-16	0	0	0	0	0	0
2022-07-10	19:58:12	1	5	1	6.5.2	133	4	TNT_Think_CSm	Intrusion	0	500	3000	0	4	1	197	1	How <b>often</b> did you <b>think</b> about the <b>scene</b>?   <center><br><b>NEVER (1)    BRIEFLY (2)   OFTEN (3) </b>	-16	0	0	0	0	0	0
2022-07-10	19:58:12	1	5	1	6.5.2	134	1	TNT_NoThink_CSm	fixation	0	5	1500	0	0	1	1495	1	+	-11	0	0	0	0	0	0
2022-07-10	19:58:12	1	5	1	6.5.2	134	2	TNT_NoThink_CSm	NoThink	0	5	0	0	0	0	1000	1	DON'T THINK	-11	0	0	0	0	0	0
2022-07-10	19:58:12	1	5	1	6.5.2	134	3	TNT_NoThink_CSm	TNT_NoThink_CSm	0	5	0	0	0	0	3000	5	Cue14.jpg	-16	0	0	0	0	0	0
2022-07-10	19:58:12	1	5	1	6.5.2	134	4	TNT_NoThink_CSm	Intrusion	0	1500	3000	0	0	0	1500	1	How <b>often</b> did you <b>think</b> about the <b>scene</b>?   <center><br><b>NEVER (1)    BRIEFLY (2)   OFTEN (3) </b>	-10	0	0	0	0	0	0
2022-07-10	19:58:12	1	5	1	6.5.2	135	1	TNT_NoThink_CSp	fixation	0	5	1500	0	0	1	1495	1	+	-10	0	0	0	0	0	0
2022-07-10	19:58:12	1	5	1	6.5.2	135	2	TNT_NoThink_CSp	NoThink	0	5	0	0	0	0	1000	1	DON'T THINK	-11	0	0	0	0	0	0
2022-07-10	19:58:12	1	5	1	6.5.2	135	3	TNT_NoThink_CSp	TNT_NoThink_CSp	0	5	0	0	0	0	3000	4	Cue18.jpg	-16	0	0	0	0	0	0
2022-07-10	19:58:12	1	5	1	6.5.2	135	4	TNT_NoThink_CSp	Intrusion	0	500	3000	0	2	1	1580	1	How <b>often</b> did you <b>think</b> about the <b>scene</b>?   <center><br><b>NEVER (1)    BRIEFLY (2)   OFTEN (3) </b>	-10	0	0	0	0	0	0
2022-07-10	19:58:12	1	5	1	6.5.2	136	1	TNT_NoThink_CSm	fixation	0	5	1000	0	0	1	995	1	+	-9	0	0	0	0	0	0
