subject	date	time	currenttime	currenttime_plus_ms	blocknum	trialnum	blockcode	trialcode	pretrialpause	posttrialpause	trialduration	trialtimeout	response	correct	latency	stimulusnumber1	stimulusitem1	stimulusonset1	stimulusnumber2	stimulusitem2	stimulusonset2	stimulusnumber3	stimulusitem3	stimulusonset3
13	2023-04-13	09:57:14	10:07:36	10:07:36:469	1	1	countdown	instructions	0	5	0	0	57	0	1510	1	<center><br><br> <b>WATCH CALLIBRATION</b>.                <br><br><br><br>In a couple of seconds a <b>countdown</b> will start that counts down from 3 to 1,       <br><br>after which the screen will show the instruction <b>PRESS BUTTON</b>.       <br><br><b>As soon as you see that screen</b>, you must shortly press the button on your watch.       <br><br> <br><br> Press SPACE  to continue.	-4	0	0	0	0	0	0
13	2023-04-13	09:57:14	10:07:37	10:07:37:508	1	2	countdown	countdown_3	0	5	0	0	0	0	1000	1	3	-8	0	0	0	0	0	0
13	2023-04-13	09:57:14	10:07:38	10:07:38:525	1	3	countdown	countdown_2	0	5	0	0	0	0	1000	1	2	-16	0	0	0	0	0	0
13	2023-04-13	09:57:14	10:07:39	10:07:39:542	1	4	countdown	countdown_1	0	5	0	0	0	0	1000	1	1	-16	0	0	0	0	0	0
13	2023-04-13	09:57:14	10:07:40	10:07:40:558	1	5	countdown	press_button	0	5	0	0	0	0	1000	1	PRESS BUTTON NOW	-16	0	0	0	0	0	0
13	2023-04-13	09:57:14	10:10:46	10:10:46:041	2	1	Rest	Rest	0	5	0	0	0	0	180000	1	+	-8	0	0	0	0	0	0
13	2023-04-13	09:57:14	10:10:54	10:10:54:476	3	1	countdown	instructions	0	5	0	0	57	0	8392	1	<center><br><br> <b>WATCH CALLIBRATION</b>.                <br><br><br><br>In a couple of seconds a <b>countdown</b> will start that counts down from 3 to 1,       <br><br>after which the screen will show the instruction <b>PRESS BUTTON</b>.       <br><br><b>As soon as you see that screen</b>, you must shortly press the button on your watch.       <br><br> <br><br> Press SPACE  to continue.	-4	0	0	0	0	0	0
13	2023-04-13	09:57:14	10:10:55	10:10:55:518	3	2	countdown	countdown_3	0	5	0	0	0	0	1000	1	3	-8	0	0	0	0	0	0
13	2023-04-13	09:57:14	10:10:56	10:10:56:535	3	3	countdown	countdown_2	0	5	0	0	0	0	1000	1	2	-16	0	0	0	0	0	0
13	2023-04-13	09:57:14	10:10:57	10:10:57:552	3	4	countdown	countdown_1	0	5	0	0	0	0	1000	1	1	-16	0	0	0	0	0	0
13	2023-04-13	09:57:14	10:10:58	10:10:58:568	3	5	countdown	press_button	0	5	0	0	0	0	1000	1	PRESS BUTTON NOW	-16	0	0	0	0	0	0
13	2023-04-13	09:57:14	10:11:41	10:11:41:504	2	1	Reminder_NoThink_CSp	fixation	0	5	500	0	0	1	495	1	+	-8	0	0	0	0	0	0
13	2023-04-13	09:57:14	10:11:46	10:11:46:536	2	2	Reminder_NoThink_CSp	NoThink_CSp	0	5	0	0	0	0	5000	1	+	-16	4	Cue29.jpg	-16	4	Target29.jpg	-16
13	2023-04-13	09:57:14	10:11:55	10:11:55:084	2	3	Reminder_NoThink_CSp	valence	0	5	0	0	50	0	8484	1	I found these images to be...	-3	0	0	0	0	0	0
13	2023-04-13	09:57:14	10:12:07	10:12:07:068	2	4	Reminder_NoThink_CSp	expectancy	0	1500	0	0	80	0	11901	1	When you saw the <b>object-scene</b>,   to what <b>degree (0-100%)</b> did you expect the <b>unpleasant sound to occur</b>?	-5	0	0	0	0	0	0
13	2023-04-13	09:57:14	10:12:09	10:12:09:555	3	1	PracticeItems_NoThink	fixation	0	5	1000	0	0	1	995	1	+	-8	0	0	0	0	0	0
13	2023-04-13	09:57:14	10:12:14	10:12:14:572	3	2	PracticeItems_NoThink	PracticeItems_NoThink	0	5	0	0	0	0	5000	1	+	-16	2	Cue40.jpg	-16	2	Target40.jpg	-16
13	2023-04-13	09:57:14	10:12:23	10:12:23:185	3	3	PracticeItems_NoThink	valence	0	5	0	0	60	0	8586	1	I found these images to be...	-16	0	0	0	0	0	0
13	2023-04-13	09:57:14	10:12:33	10:12:33:636	3	4	PracticeItems_NoThink	expectancy	0	500	0	0	10	0	10408	1	When you saw the <b>object-scene</b>,   to what <b>degree (0-100%)</b> did you expect the <b>unpleasant sound to occur</b>?	0	0	0	0	0	0	0
13	2023-04-13	09:57:14	10:12:35	10:12:35:635	4	1	Reminder_Objects_CSm	fixation	0	5	1500	0	0	1	1495	1	+	-14	0	0	0	0	0	0
13	2023-04-13	09:57:14	10:12:40	10:12:40:653	4	2	Reminder_Objects_CSm	Objects_CSm	0	5	0	0	0	0	5000	3	Object4.jpg	-14	0	0	0	0	0	0
13	2023-04-13	09:57:14	10:12:48	10:12:48:254	4	3	Reminder_Objects_CSm	expectancy_object	0	500	0	0	0	0	7580	1	When you saw the <b>object</b>,   to what <b>degree (0-100%)</b> did you expect the <b>unpleasant sound to occur</b>?	-16	0	0	0	0	0	0
13	2023-04-13	09:57:14	10:12:50	10:12:50:253	5	1	Reminder_Baseline_CSp	fixation	0	5	1500	0	0	1	1495	1	+	-15	0	0	0	0	0	0
13	2023-04-13	09:57:14	10:12:55	10:12:55:273	5	2	Reminder_Baseline_CSp	Baseline_CSp	0	5	0	0	0	0	5000	1	+	-16	3	Cue12.jpg	-16	3	Target12.jpg	-16
13	2023-04-13	09:57:14	10:13:08	10:13:08:038	5	3	Reminder_Baseline_CSp	valence	0	5	0	0	70	0	12739	1	I found these images to be...	-16	0	0	0	0	0	0
13	2023-04-13	09:57:14	10:13:12	10:13:12:888	5	4	Reminder_Baseline_CSp	expectancy	0	1000	0	0	0	0	4779	1	When you saw the <b>object-scene</b>,   to what <b>degree (0-100%)</b> did you expect the <b>unpleasant sound to occur</b>?	0	0	0	0	0	0	0
13	2023-04-13	09:57:14	10:13:14	10:13:14:375	6	1	Reminder_Objects_CSm	fixation	0	5	500	0	0	1	495	1	+	-8	0	0	0	0	0	0
13	2023-04-13	09:57:14	10:13:19	10:13:19:391	6	2	Reminder_Objects_CSm	Objects_CSm	0	5	0	0	0	0	5000	1	Object3.jpg	-16	0	0	0	0	0	0
13	2023-04-13	09:57:14	10:13:23	10:13:23:556	6	3	Reminder_Objects_CSm	expectancy_object	0	1500	0	0	0	0	4109	1	When you saw the <b>object</b>,   to what <b>degree (0-100%)</b> did you expect the <b>unpleasant sound to occur</b>?	-16	0	0	0	0	0	0
13	2023-04-13	09:57:14	10:13:26	10:13:26:043	7	1	Reminder_Baseline_CSp	fixation	0	5	1000	0	0	1	995	1	+	-8	0	0	0	0	0	0
13	2023-04-13	09:57:14	10:13:31	10:13:31:059	7	2	Reminder_Baseline_CSp	Baseline_CSp	0	5	0	0	0	0	5000	1	+	-16	6	Cue9.jpg	-16	6	Target9.jpg	-16
13	2023-04-13	09:57:14	10:13:37	10:13:37:940	7	3	Reminder_Baseline_CSp	valence	0	5	0	0	60	0	5858	1	I found these images to be...	-16	0	0	0	0	0	0
13	2023-04-13	09:57:14	10:13:40	10:13:40:240	7	4	Reminder_Baseline_CSp	expectancy	0	500	0	0	0	0	3229	1	When you saw the <b>object-scene</b>,   to what <b>degree (0-100%)</b> did you expect the <b>unpleasant sound to occur</b>?	0	0	0	0	0	0	0
13	2023-04-13	09:57:14	10:13:41	10:13:41:726	8	1	Reminder_Think_CSm	fixation	0	5	1000	0	0	1	995	1	+	-8	0	0	0	0	0	0
13	2023-04-13	09:57:14	10:13:46	10:13:46:743	8	2	Reminder_Think_CSm	Think_CSm	0	5	0	0	0	0	5000	1	+	-16	3	Cue14.jpg	-16	3	Target14.jpg	-16
13	2023-04-13	09:57:14	10:13:51	10:13:51:824	8	3	Reminder_Think_CSm	valence	0	5	0	0	10	0	5054	1	I found these images to be...	-16	0	0	0	0	0	0
13	2023-04-13	09:57:14	10:13:58	10:13:58:174	8	4	Reminder_Think_CSm	expectancy	0	1000	0	0	90	0	6281	1	When you saw the <b>object-scene</b>,   to what <b>degree (0-100%)</b> did you expect the <b>unpleasant sound to occur</b>?	6	0	0	0	0	0	0
13	2023-04-13	09:57:14	10:13:59	10:13:59:660	9	1	Reminder_NoThink_CSm	fixation	0	5	500	0	0	1	495	1	+	-8	0	0	0	0	0	0
13	2023-04-13	09:57:14	10:14:04	10:14:04:677	9	2	Reminder_NoThink_CSm	NoThink_CSm	0	5	0	0	0	0	5000	1	+	-16	3	Cue1.jpg	-16	3	Target1.jpg	-16
13	2023-04-13	09:57:14	10:14:08	10:14:08:892	9	3	Reminder_NoThink_CSm	valence	0	5	0	0	0	0	4183	1	I found these images to be...	-16	0	0	0	0	0	0
13	2023-04-13	09:57:14	10:14:14	10:14:14:359	9	4	Reminder_NoThink_CSm	expectancy	0	1500	0	0	10	0	5422	1	When you saw the <b>object-scene</b>,   to what <b>degree (0-100%)</b> did you expect the <b>unpleasant sound to occur</b>?	0	0	0	0	0	0	0
13	2023-04-13	09:57:14	10:14:17	10:14:17:362	10	1	Reminder_Baseline_CSp	fixation	0	5	1500	0	0	1	1495	1	+	-8	0	0	0	0	0	0
13	2023-04-13	09:57:14	10:14:22	10:14:22:378	10	2	Reminder_Baseline_CSp	Baseline_CSp	0	5	0	0	0	0	5000	1	+	-16	5	Cue11.jpg	-16	5	Target11.jpg	-16
13	2023-04-13	09:57:14	10:14:29	10:14:29:293	10	3	Reminder_Baseline_CSp	valence	0	5	0	0	70	0	6866	1	I found these images to be...	-16	0	0	0	0	0	0
13	2023-04-13	09:57:14	10:14:34	10:14:34:143	10	4	Reminder_Baseline_CSp	expectancy	0	1000	0	0	0	0	4764	1	When you saw the <b>object-scene</b>,   to what <b>degree (0-100%)</b> did you expect the <b>unpleasant sound to occur</b>?	-6	0	0	0	0	0	0
13	2023-04-13	09:57:14	10:14:36	10:14:36:131	11	1	Reminder_Think_CSp	fixation	0	5	1000	0	0	1	995	1	+	-8	0	0	0	0	0	0
13	2023-04-13	09:57:14	10:14:41	10:14:41:146	11	2	Reminder_Think_CSp	Think_CSp	0	5	0	0	0	0	5000	1	+	-16	2	Cue24.jpg	-16	2	Target24.jpg	-16
13	2023-04-13	09:57:14	10:14:44	10:14:44:761	11	3	Reminder_Think_CSp	valence	0	5	0	0	80	0	3586	1	I found these images to be...	-16	0	0	0	0	0	0
13	2023-04-13	09:57:14	10:14:48	10:14:48:761	11	4	Reminder_Think_CSp	expectancy	0	500	0	0	0	0	3953	1	When you saw the <b>object-scene</b>,   to what <b>degree (0-100%)</b> did you expect the <b>unpleasant sound to occur</b>?	0	0	0	0	0	0	0
13	2023-04-13	09:57:14	10:14:49	10:14:49:760	12	1	Reminder_Objects_CSp	fixation	0	5	500	0	0	1	495	1	+	-15	0	0	0	0	0	0
13	2023-04-13	09:57:14	10:14:54	10:14:54:778	12	2	Reminder_Objects_CSp	Objects_CSp	0	5	0	0	0	0	5000	4	Object1.jpg	-14	0	0	0	0	0	0
13	2023-04-13	09:57:14	10:15:11	10:15:11:078	12	3	Reminder_Objects_CSp	expectancy_object	0	1000	0	0	10	0	16272	1	When you saw the <b>object</b>,   to what <b>degree (0-100%)</b> did you expect the <b>unpleasant sound to occur</b>?	-16	0	0	0	0	0	0
13	2023-04-13	09:57:14	10:15:13	10:15:13:577	13	1	PracticeItems_NoThink	fixation	0	5	1500	0	0	1	1495	1	+	-15	0	0	0	0	0	0
13	2023-04-13	09:57:14	10:15:18	10:15:18:596	13	2	PracticeItems_NoThink	PracticeItems_NoThink	0	5	0	0	0	0	5000	1	+	-14	1	Cue39.jpg	-14	1	Target39.jpg	-14
13	2023-04-13	09:57:14	10:15:27	10:15:27:429	13	3	PracticeItems_NoThink	valence	0	5	0	0	10	0	8807	1	I found these images to be...	-16	0	0	0	0	0	0
13	2023-04-13	09:57:14	10:15:32	10:15:32:680	13	4	PracticeItems_NoThink	expectancy	0	1500	0	0	100	0	5205	1	When you saw the <b>object-scene</b>,   to what <b>degree (0-100%)</b> did you expect the <b>unpleasant sound to occur</b>?	0	0	0	0	0	0	0
13	2023-04-13	09:57:14	10:15:35	10:15:35:678	14	1	Reminder_NoThink_CSm	fixation	0	5	1500	0	0	1	1495	1	+	-15	0	0	0	0	0	0
13	2023-04-13	09:57:14	10:15:40	10:15:40:697	14	2	Reminder_NoThink_CSm	NoThink_CSm	0	5	0	0	0	0	5000	1	+	-14	2	Cue3.jpg	-14	2	Target3.jpg	-14
13	2023-04-13	09:57:14	10:15:46	10:15:46:281	14	3	Reminder_NoThink_CSm	valence	0	5	0	0	30	0	5554	1	I found these images to be...	-16	0	0	0	0	0	0
13	2023-04-13	09:57:14	10:15:50	10:15:50:498	14	4	Reminder_NoThink_CSm	expectancy	0	500	0	0	80	0	4178	1	When you saw the <b>object-scene</b>,   to what <b>degree (0-100%)</b> did you expect the <b>unpleasant sound to occur</b>?	-11	0	0	0	0	0	0
13	2023-04-13	09:57:14	10:15:52	10:15:52:997	15	1	Reminder_Baseline_CSp	fixation	0	5	1000	0	0	1	995	1	+	-15	0	0	0	0	0	0
13	2023-04-13	09:57:14	10:15:57	10:15:57:015	15	2	Reminder_Baseline_CSp	Baseline_CSp	0	5	0	0	0	0	5000	1	+	-14	1	Cue32.jpg	-14	1	Target32.jpg	-14
13	2023-04-13	09:57:14	10:16:02	10:16:02:565	15	3	Reminder_Baseline_CSp	valence	0	5	0	0	10	0	5499	1	I found these images to be...	-16	0	0	0	0	0	0
13	2023-04-13	09:57:14	10:16:06	10:16:06:915	15	4	Reminder_Baseline_CSp	expectancy	0	1500	0	0	90	0	4300	1	When you saw the <b>object-scene</b>,   to what <b>degree (0-100%)</b> did you expect the <b>unpleasant sound to occur</b>?	-11	0	0	0	0	0	0
13	2023-04-13	09:57:14	10:16:08	10:16:08:914	16	1	Reminder_Objects_CSm	fixation	0	5	500	0	0	1	495	1	+	-13	0	0	0	0	0	0
13	2023-04-13	09:57:14	10:16:13	10:16:13:934	16	2	Reminder_Objects_CSm	Objects_CSm	0	5	0	0	0	0	5000	4	Object5.jpg	-13	0	0	0	0	0	0
13	2023-04-13	09:57:14	10:16:32	10:16:32:584	16	3	Reminder_Objects_CSm	expectancy_object	0	1500	0	0	20	0	18598	1	When you saw the <b>object</b>,   to what <b>degree (0-100%)</b> did you expect the <b>unpleasant sound to occur</b>?	-16	0	0	0	0	0	0
13	2023-04-13	09:57:14	10:16:35	10:16:35:069	17	1	Reminder_Baseline_CSm	fixation	0	5	1000	0	0	1	995	1	+	-7	0	0	0	0	0	0
13	2023-04-13	09:57:14	10:16:40	10:16:40:087	17	2	Reminder_Baseline_CSm	Baseline_CSm	0	5	0	0	0	0	5000	1	+	-16	3	Cue4.jpg	-16	3	Target4.jpg	-16
13	2023-04-13	09:57:14	10:16:47	10:16:47:101	17	3	Reminder_Baseline_CSm	valence	0	5	0	0	20	0	6959	1	I found these images to be...	-16	0	0	0	0	0	0
13	2023-04-13	09:57:14	10:16:50	10:16:50:301	17	4	Reminder_Baseline_CSm	expectancy	0	1000	0	0	90	0	3133	1	When you saw the <b>object-scene</b>,   to what <b>degree (0-100%)</b> did you expect the <b>unpleasant sound to occur</b>?	-6	0	0	0	0	0	0
13	2023-04-13	09:57:14	10:16:52	10:16:52:787	18	1	Reminder_NoThink_CSp	fixation	0	5	1500	0	0	1	1495	1	+	-8	0	0	0	0	0	0
13	2023-04-13	09:57:14	10:16:57	10:16:57:804	18	2	Reminder_NoThink_CSp	NoThink_CSp	0	5	0	0	0	0	5000	1	+	-16	3	Cue31.jpg	-16	3	Target31.jpg	-16
13	2023-04-13	09:57:14	10:17:04	10:17:04:935	18	3	Reminder_NoThink_CSp	valence	0	5	0	0	0	0	7081	1	I found these images to be...	-16	0	0	0	0	0	0
13	2023-04-13	09:57:14	10:17:07	10:17:07:286	18	4	Reminder_NoThink_CSp	expectancy	0	1500	0	0	100	0	2307	1	When you saw the <b>object-scene</b>,   to what <b>degree (0-100%)</b> did you expect the <b>unpleasant sound to occur</b>?	-7	0	0	0	0	0	0
13	2023-04-13	09:57:14	10:17:09	10:17:09:285	19	1	Reminder_NoThink_CSp	fixation	0	5	500	0	0	1	495	1	+	-14	0	0	0	0	0	0
13	2023-04-13	09:57:14	10:17:14	10:17:14:302	19	2	Reminder_NoThink_CSp	NoThink_CSp	0	5	0	0	0	0	5000	1	+	-14	2	Cue23.jpg	-14	2	Target23.jpg	-14
13	2023-04-13	09:57:14	10:17:18	10:17:18:536	19	3	Reminder_NoThink_CSp	valence	0	5	0	0	30	0	4204	1	I found these images to be...	-16	0	0	0	0	0	0
13	2023-04-13	09:57:14	10:17:22	10:17:22:337	19	4	Reminder_NoThink_CSp	expectancy	0	1000	0	0	90	0	3754	1	When you saw the <b>object-scene</b>,   to what <b>degree (0-100%)</b> did you expect the <b>unpleasant sound to occur</b>?	-12	0	0	0	0	0	0
13	2023-04-13	09:57:14	10:17:24	10:17:24:835	20	1	Reminder_Think_CSp	fixation	0	5	1500	0	0	1	1495	1	+	-15	0	0	0	0	0	0
13	2023-04-13	09:57:14	10:17:29	10:17:29:853	20	2	Reminder_Think_CSp	Think_CSp	0	5	0	0	0	0	5000	1	+	-13	6	Cue21.jpg	-13	6	Target21.jpg	-13
13	2023-04-13	09:57:14	10:17:45	10:17:45:871	20	3	Reminder_Think_CSp	valence	0	5	0	0	40	0	15990	1	I found these images to be...	-16	0	0	0	0	0	0
13	2023-04-13	09:57:14	10:17:51	10:17:51:788	20	4	Reminder_Think_CSp	expectancy	0	500	0	0	10	0	5875	1	When you saw the <b>object-scene</b>,   to what <b>degree (0-100%)</b> did you expect the <b>unpleasant sound to occur</b>?	-12	0	0	0	0	0	0
13	2023-04-13	09:57:14	10:17:52	10:17:52:791	21	1	Reminder_Baseline_CSp	fixation	0	5	500	0	0	1	495	1	+	-8	0	0	0	0	0	0
13	2023-04-13	09:57:14	10:17:57	10:17:57:808	21	2	Reminder_Baseline_CSp	Baseline_CSp	0	5	0	0	0	0	5000	1	+	-16	2	Cue27.jpg	-16	2	Target27.jpg	-16
13	2023-04-13	09:57:14	10:18:08	10:18:08:139	21	3	Reminder_Baseline_CSp	valence	0	5	0	0	10	0	10278	1	I found these images to be...	-16	0	0	0	0	0	0
13	2023-04-13	09:57:14	10:18:16	10:18:16:056	21	4	Reminder_Baseline_CSp	expectancy	0	1000	0	0	100	0	7863	1	When you saw the <b>object-scene</b>,   to what <b>degree (0-100%)</b> did you expect the <b>unpleasant sound to occur</b>?	-7	0	0	0	0	0	0
13	2023-04-13	09:57:14	10:18:18	10:18:18:058	22	1	Reminder_Think_CSp	fixation	0	5	1000	0	0	1	995	1	+	-14	0	0	0	0	0	0
13	2023-04-13	09:57:14	10:18:23	10:18:23:073	22	2	Reminder_Think_CSp	Think_CSp	0	5	0	0	0	0	5000	1	+	-16	1	Cue30.jpg	-16	1	Target30.jpg	-16
13	2023-04-13	09:57:14	10:18:29	10:18:29:773	22	3	Reminder_Think_CSp	valence	0	5	0	0	10	0	6650	1	I found these images to be...	-16	0	0	0	0	0	0
13	2023-04-13	09:57:14	10:18:36	10:18:36:357	22	4	Reminder_Think_CSp	expectancy	0	500	0	0	90	0	6549	1	When you saw the <b>object-scene</b>,   to what <b>degree (0-100%)</b> did you expect the <b>unpleasant sound to occur</b>?	-11	0	0	0	0	0	0
13	2023-04-13	09:57:14	10:18:37	10:18:37:857	23	1	Reminder_NoThink_CSm	fixation	0	5	1000	0	0	1	995	1	+	-14	0	0	0	0	0	0
13	2023-04-13	09:57:14	10:18:42	10:18:42:875	23	2	Reminder_NoThink_CSm	NoThink_CSm	0	5	0	0	0	0	5000	1	+	-16	5	Cue26.jpg	-16	5	Target26.jpg	-16
13	2023-04-13	09:57:14	10:18:49	10:18:49:558	23	3	Reminder_NoThink_CSm	valence	0	5	0	0	60	0	6657	1	I found these images to be...	-16	0	0	0	0	0	0
13	2023-04-13	09:57:14	10:18:54	10:18:54:358	23	4	Reminder_NoThink_CSm	expectancy	0	1500	0	0	80	0	4756	1	When you saw the <b>object-scene</b>,   to what <b>degree (0-100%)</b> did you expect the <b>unpleasant sound to occur</b>?	7	0	0	0	0	0	0
13	2023-04-13	09:57:14	10:18:57	10:18:57:363	24	1	Reminder_NoThink_CSm	fixation	0	5	1500	0	0	1	1495	1	+	-8	0	0	0	0	0	0
13	2023-04-13	09:57:14	10:19:02	10:19:02:378	24	2	Reminder_NoThink_CSm	NoThink_CSm	0	5	0	0	0	0	5000	1	+	-16	4	Cue18.jpg	-16	4	Target18.jpg	-16
13	2023-04-13	09:57:14	10:19:06	10:19:06:759	24	3	Reminder_NoThink_CSm	valence	0	5	0	0	0	0	4355	1	I found these images to be...	-16	0	0	0	0	0	0
13	2023-04-13	09:57:14	10:19:10	10:19:10:776	24	4	Reminder_NoThink_CSm	expectancy	0	1000	0	0	90	0	3947	1	When you saw the <b>object-scene</b>,   to what <b>degree (0-100%)</b> did you expect the <b>unpleasant sound to occur</b>?	0	0	0	0	0	0	0
13	2023-04-13	09:57:14	10:19:12	10:19:12:262	25	1	Reminder_Think_CSm	fixation	0	5	500	0	0	1	495	1	+	0	0	0	0	0	0	0
13	2023-04-13	09:57:14	10:19:17	10:19:17:279	25	2	Reminder_Think_CSm	Think_CSm	0	5	0	0	0	0	5000	1	+	-16	4	Cue2.jpg	-16	4	Target2.jpg	-16
13	2023-04-13	09:57:14	10:19:22	10:19:22:426	25	3	Reminder_Think_CSm	valence	0	5	0	0	0	0	5095	1	I found these images to be...	-16	0	0	0	0	0	0
13	2023-04-13	09:57:14	10:19:27	10:19:27:377	25	4	Reminder_Think_CSm	expectancy	0	500	0	0	90	0	4895	1	When you saw the <b>object-scene</b>,   to what <b>degree (0-100%)</b> did you expect the <b>unpleasant sound to occur</b>?	-7	0	0	0	0	0	0
13	2023-04-13	09:57:14	10:19:28	10:19:28:376	26	1	Reminder_Objects_CSp	fixation	0	5	500	0	0	1	495	1	+	-15	0	0	0	0	0	0
13	2023-04-13	09:57:14	10:19:33	10:19:33:396	26	2	Reminder_Objects_CSp	Objects_CSp	0	5	0	0	0	0	5000	3	Object6.jpg	-14	0	0	0	0	0	0
13	2023-04-13	09:57:14	10:19:46	10:19:46:911	26	3	Reminder_Objects_CSp	expectancy_object	0	1000	0	0	0	0	13489	1	When you saw the <b>object</b>,   to what <b>degree (0-100%)</b> did you expect the <b>unpleasant sound to occur</b>?	-16	0	0	0	0	0	0
13	2023-04-13	09:57:14	10:19:49	10:19:49:414	27	1	Reminder_Baseline_CSm	fixation	0	5	1500	0	0	1	1495	1	+	-7	0	0	0	0	0	0
13	2023-04-13	09:57:14	10:19:54	10:19:54:431	27	2	Reminder_Baseline_CSm	Baseline_CSm	0	5	0	0	0	0	5000	1	+	-16	2	Cue13.jpg	-16	2	Target13.jpg	-16
13	2023-04-13	09:57:14	10:20:00	10:20:00:829	27	3	Reminder_Baseline_CSm	valence	0	5	0	0	30	0	6351	1	I found these images to be...	-16	0	0	0	0	0	0
13	2023-04-13	09:57:14	10:20:06	10:20:06:096	27	4	Reminder_Baseline_CSm	expectancy	0	1500	0	0	90	0	5213	1	When you saw the <b>object-scene</b>,   to what <b>degree (0-100%)</b> did you expect the <b>unpleasant sound to occur</b>?	-7	0	0	0	0	0	0
13	2023-04-13	09:57:14	10:20:08	10:20:08:595	28	1	Reminder_NoThink_CSp	fixation	0	5	1000	0	0	1	995	1	+	-14	0	0	0	0	0	0
13	2023-04-13	09:57:14	10:20:13	10:20:13:613	28	2	Reminder_NoThink_CSp	NoThink_CSp	0	5	0	0	0	0	5000	1	+	-14	1	Cue33.jpg	-14	1	Target33.jpg	-14
13	2023-04-13	09:57:14	10:20:17	10:20:17:580	28	3	Reminder_NoThink_CSp	valence	0	5	0	0	10	0	3942	1	I found these images to be...	-16	0	0	0	0	0	0
13	2023-04-13	09:57:14	10:20:21	10:20:21:213	28	4	Reminder_NoThink_CSp	expectancy	0	500	0	0	80	0	3566	1	When you saw the <b>object-scene</b>,   to what <b>degree (0-100%)</b> did you expect the <b>unpleasant sound to occur</b>?	-12	0	0	0	0	0	0
13	2023-04-13	09:57:14	10:20:22	10:20:22:695	29	1	Reminder_Think_CSp	fixation	0	5	1000	0	0	1	995	1	+	-15	0	0	0	0	0	0
13	2023-04-13	09:57:14	10:20:27	10:20:27:716	29	2	Reminder_Think_CSp	Think_CSp	0	5	0	0	0	0	5000	1	+	-10	3	Cue20.jpg	-10	3	Target20.jpg	-10
13	2023-04-13	09:57:14	10:20:35	10:20:35:791	29	3	Reminder_Think_CSp	valence	0	5	0	0	30	0	8025	1	I found these images to be...	-16	0	0	0	0	0	0
13	2023-04-13	09:57:14	10:20:39	10:20:39:198	29	4	Reminder_Think_CSp	expectancy	0	1000	0	0	60	0	3373	1	When you saw the <b>object-scene</b>,   to what <b>degree (0-100%)</b> did you expect the <b>unpleasant sound to occur</b>?	0	0	0	0	0	0	0
13	2023-04-13	09:57:14	10:20:41	10:20:41:696	30	1	Reminder_Baseline_CSp	fixation	0	5	1500	0	0	1	1495	1	+	-15	0	0	0	0	0	0
13	2023-04-13	09:57:14	10:20:46	10:20:46:715	30	2	Reminder_Baseline_CSp	Baseline_CSp	0	5	0	0	0	0	5000	1	+	-14	4	Cue10.jpg	-14	4	Target10.jpg	-14
13	2023-04-13	09:57:14	10:20:51	10:20:51:315	30	3	Reminder_Baseline_CSp	valence	0	5	0	0	10	0	4576	1	I found these images to be...	-16	0	0	0	0	0	0
13	2023-04-13	09:57:14	10:20:55	10:20:55:182	30	4	Reminder_Baseline_CSp	expectancy	0	1500	0	0	80	0	3799	1	When you saw the <b>object-scene</b>,   to what <b>degree (0-100%)</b> did you expect the <b>unpleasant sound to occur</b>?	-12	0	0	0	0	0	0
13	2023-04-13	09:57:14	10:20:57	10:20:57:165	31	1	Reminder_Think_CSm	fixation	0	5	500	0	0	1	495	1	+	-15	0	0	0	0	0	0
13	2023-04-13	09:57:14	10:21:02	10:21:02:182	31	2	Reminder_Think_CSm	Think_CSm	0	5	0	0	0	0	5000	1	+	-14	6	Cue35.jpg	-14	6	Target35.jpg	-14
13	2023-04-13	09:57:14	10:21:09	10:21:09:700	31	3	Reminder_Think_CSm	valence	0	5	0	0	40	0	7492	1	I found these images to be...	-16	0	0	0	0	0	0
13	2023-04-13	09:57:14	10:21:19	10:21:19:066	31	4	Reminder_Think_CSm	expectancy	0	1000	0	0	40	0	9295	1	When you saw the <b>object-scene</b>,   to what <b>degree (0-100%)</b> did you expect the <b>unpleasant sound to occur</b>?	-12	0	0	0	0	0	0
13	2023-04-13	09:57:14	10:21:21	10:21:21:055	32	1	Reminder_Objects_CSm	fixation	0	5	1000	0	0	1	995	1	+	-8	0	0	0	0	0	0
13	2023-04-13	09:57:14	10:21:26	10:21:26:070	32	2	Reminder_Objects_CSm	Objects_CSm	0	5	0	0	0	0	5000	2	Object2.jpg	-16	0	0	0	0	0	0
13	2023-04-13	09:57:14	10:21:37	10:21:37:835	32	3	Reminder_Objects_CSm	expectancy_object	0	500	0	0	10	0	11736	1	When you saw the <b>object</b>,   to what <b>degree (0-100%)</b> did you expect the <b>unpleasant sound to occur</b>?	-16	0	0	0	0	0	0
13	2023-04-13	09:57:14	10:21:39	10:21:39:838	33	1	Reminder_Think_CSm	fixation	0	5	1500	0	0	1	1495	1	+	-8	0	0	0	0	0	0
13	2023-04-13	09:57:14	10:21:44	10:21:44:854	33	2	Reminder_Think_CSm	Think_CSm	0	5	0	0	0	0	5000	1	+	-16	1	Cue6.jpg	-16	1	Target6.jpg	-16
13	2023-04-13	09:57:14	10:21:51	10:21:51:068	33	3	Reminder_Think_CSm	valence	0	5	0	0	40	0	6160	1	I found these images to be...	-16	0	0	0	0	0	0
13	2023-04-13	09:57:14	10:21:54	10:21:54:752	33	4	Reminder_Think_CSm	expectancy	0	500	0	0	70	0	3646	1	When you saw the <b>object-scene</b>,   to what <b>degree (0-100%)</b> did you expect the <b>unpleasant sound to occur</b>?	-7	0	0	0	0	0	0
13	2023-04-13	09:57:14	10:21:55	10:21:55:752	34	1	Reminder_Think_CSm	fixation	0	5	500	0	0	1	495	1	+	-14	0	0	0	0	0	0
13	2023-04-13	09:57:14	10:22:00	10:22:00:769	34	2	Reminder_Think_CSm	Think_CSm	0	5	0	0	0	0	5000	1	+	-12	2	Cue15.jpg	-12	2	Target15.jpg	-12
13	2023-04-13	09:57:14	10:22:09	10:22:09:953	34	3	Reminder_Think_CSm	valence	0	5	0	0	40	0	8162	1	I found these images to be...	-16	0	0	0	0	0	0
13	2023-04-13	09:57:14	10:22:17	10:22:17:120	34	4	Reminder_Think_CSm	expectancy	0	1500	0	0	80	0	8121	1	When you saw the <b>object-scene</b>,   to what <b>degree (0-100%)</b> did you expect the <b>unpleasant sound to occur</b>?	-12	0	0	0	0	0	0
13	2023-04-13	09:57:14	10:22:19	10:22:19:125	35	1	Reminder_Baseline_CSm	fixation	0	5	500	0	0	1	495	1	+	-8	0	0	0	0	0	0
13	2023-04-13	09:57:14	10:22:24	10:22:24:140	35	2	Reminder_Baseline_CSm	Baseline_CSm	0	5	0	0	0	0	5000	1	+	-16	4	Cue8.jpg	-16	4	Target8.jpg	-16
13	2023-04-13	09:57:14	10:22:28	10:22:28:571	35	3	Reminder_Baseline_CSm	valence	0	5	0	0	20	0	4402	1	I found these images to be...	-16	0	0	0	0	0	0
13	2023-04-13	09:57:14	10:22:31	10:22:31:521	35	4	Reminder_Baseline_CSm	expectancy	0	500	0	0	70	0	2880	1	When you saw the <b>object-scene</b>,   to what <b>degree (0-100%)</b> did you expect the <b>unpleasant sound to occur</b>?	0	0	0	0	0	0	0
13	2023-04-13	09:57:14	10:22:33	10:22:33:508	36	1	Reminder_Baseline_CSm	fixation	0	5	1500	0	0	1	1495	1	+	-8	0	0	0	0	0	0
13	2023-04-13	09:57:14	10:22:38	10:22:38:524	36	2	Reminder_Baseline_CSm	Baseline_CSm	0	5	0	0	0	0	5000	1	+	-16	6	Cue25.jpg	-16	6	Target25.jpg	-16
13	2023-04-13	09:57:14	10:22:42	10:22:42:988	36	3	Reminder_Baseline_CSm	valence	0	5	0	0	0	0	3409	1	I found these images to be...	-16	0	0	0	0	0	0
13	2023-04-13	09:57:14	10:22:46	10:22:46:599	36	4	Reminder_Baseline_CSm	expectancy	0	1500	0	0	100	0	4525	1	When you saw the <b>object-scene</b>,   to what <b>degree (0-100%)</b> did you expect the <b>unpleasant sound to occur</b>?	-7	0	0	0	0	0	0
13	2023-04-13	09:57:14	10:22:49	10:22:49:087	37	1	Reminder_Think_CSp	fixation	0	5	1000	0	0	1	995	1	+	-8	0	0	0	0	0	0
13	2023-04-13	09:57:14	10:22:54	10:22:54:108	37	2	Reminder_Think_CSp	Think_CSp	0	5	0	0	0	0	5000	1	+	-4	5	Cue22.jpg	-4	5	Target22.jpg	-4
13	2023-04-13	09:57:14	10:22:59	10:22:59:306	37	3	Reminder_Think_CSp	valence	0	5	0	0	50	0	5145	1	I found these images to be...	-16	0	0	0	0	0	0
13	2023-04-13	09:57:14	10:23:08	10:23:08:739	37	4	Reminder_Think_CSp	expectancy	0	1000	0	0	40	0	9360	1	When you saw the <b>object-scene</b>,   to what <b>degree (0-100%)</b> did you expect the <b>unpleasant sound to occur</b>?	-6	0	0	0	0	0	0
13	2023-04-13	09:57:14	10:23:10	10:23:10:728	38	1	Reminder_NoThink_CSm	fixation	0	5	1000	0	0	1	995	1	+	-8	0	0	0	0	0	0
13	2023-04-13	09:57:14	10:23:15	10:23:15:743	38	2	Reminder_NoThink_CSm	NoThink_CSm	0	5	0	0	0	0	5000	1	+	-16	6	Cue16.jpg	-16	6	Target16.jpg	-16
13	2023-04-13	09:57:14	10:23:23	10:23:23:157	38	3	Reminder_NoThink_CSm	valence	0	5	0	0	40	0	7391	1	I found these images to be...	-16	0	0	0	0	0	0
13	2023-04-13	09:57:14	10:23:28	10:23:28:875	38	4	Reminder_NoThink_CSm	expectancy	0	1000	0	0	90	0	5669	1	When you saw the <b>object-scene</b>,   to what <b>degree (0-100%)</b> did you expect the <b>unpleasant sound to occur</b>?	0	0	0	0	0	0	0
13	2023-04-13	09:57:14	10:23:31	10:23:31:378	39	1	Reminder_Think_CSm	fixation	0	5	1500	0	0	1	1495	1	+	-3	0	0	0	0	0	0
13	2023-04-13	09:57:14	10:23:36	10:23:36:394	39	2	Reminder_Think_CSm	Think_CSm	0	5	0	0	0	0	5000	1	+	-16	5	Cue7.jpg	-16	5	Target7.jpg	-16
13	2023-04-13	09:57:14	10:23:41	10:23:41:692	39	3	Reminder_Think_CSm	valence	0	5	0	0	0	0	5243	1	I found these images to be...	-16	0	0	0	0	0	0
13	2023-04-13	09:57:14	10:23:44	10:23:44:858	39	4	Reminder_Think_CSm	expectancy	0	500	0	0	90	0	3078	1	When you saw the <b>object-scene</b>,   to what <b>degree (0-100%)</b> did you expect the <b>unpleasant sound to occur</b>?	-7	0	0	0	0	0	0
13	2023-04-13	09:57:14	10:23:45	10:23:45:845	40	1	Reminder_Baseline_CSm	fixation	0	5	500	0	0	1	495	1	+	-8	0	0	0	0	0	0
13	2023-04-13	09:57:14	10:23:50	10:23:50:861	40	2	Reminder_Baseline_CSm	Baseline_CSm	0	5	0	0	0	0	5000	1	+	-16	5	Cue17.jpg	-16	5	Target17.jpg	-16
13	2023-04-13	09:57:14	10:23:55	10:23:55:159	40	3	Reminder_Baseline_CSm	valence	0	5	0	0	9	0	4248	1	I found these images to be...	-16	0	0	0	0	0	0
13	2023-04-13	09:57:14	10:23:58	10:23:58:326	40	4	Reminder_Baseline_CSm	expectancy	0	1500	0	0	80	0	3099	1	When you saw the <b>object-scene</b>,   to what <b>degree (0-100%)</b> did you expect the <b>unpleasant sound to occur</b>?	-7	0	0	0	0	0	0
13	2023-04-13	09:57:14	10:24:00	10:24:00:808	41	1	Reminder_NoThink_CSp	fixation	0	5	1000	0	0	1	995	1	+	-15	0	0	0	0	0	0
13	2023-04-13	09:57:14	10:24:05	10:24:05:826	41	2	Reminder_NoThink_CSp	NoThink_CSp	0	5	0	0	0	0	5000	1	+	-14	5	Cue5.jpg	-14	5	Target5.jpg	-14
13	2023-04-13	09:57:14	10:24:12	10:24:12:694	41	3	Reminder_NoThink_CSp	valence	0	5	0	0	31	0	6849	1	I found these images to be...	-16	0	0	0	0	0	0
13	2023-04-13	09:57:14	10:24:16	10:24:16:760	41	4	Reminder_NoThink_CSp	expectancy	0	1000	0	0	90	0	4021	1	When you saw the <b>object-scene</b>,   to what <b>degree (0-100%)</b> did you expect the <b>unpleasant sound to occur</b>?	-12	0	0	0	0	0	0
13	2023-04-13	09:57:14	10:24:19	10:24:19:259	42	1	Reminder_NoThink_CSm	fixation	0	5	1500	0	0	1	1495	1	+	-15	0	0	0	0	0	0
13	2023-04-13	09:57:14	10:24:24	10:24:24:277	42	2	Reminder_NoThink_CSm	NoThink_CSm	0	5	0	0	0	0	5000	1	+	-14	1	Cue28.jpg	-14	1	Target28.jpg	-14
13	2023-04-13	09:57:14	10:24:27	10:24:27:661	42	3	Reminder_NoThink_CSm	valence	0	5	0	0	30	0	3358	1	I found these images to be...	-16	0	0	0	0	0	0
13	2023-04-13	09:57:14	10:24:30	10:24:30:628	42	4	Reminder_NoThink_CSm	expectancy	0	1500	0	0	71	0	2925	1	When you saw the <b>object-scene</b>,   to what <b>degree (0-100%)</b> did you expect the <b>unpleasant sound to occur</b>?	-12	0	0	0	0	0	0
13	2023-04-13	09:57:14	10:24:32	10:24:32:627	43	1	Reminder_Objects_CSp	fixation	0	5	500	0	0	1	495	1	+	-15	0	0	0	0	0	0
13	2023-04-13	09:57:14	10:24:37	10:24:37:645	43	2	Reminder_Objects_CSp	Objects_CSp	0	5	0	0	0	0	5000	1	Object7.jpg	-16	0	0	0	0	0	0
13	2023-04-13	09:57:14	10:24:50	10:24:50:060	43	3	Reminder_Objects_CSp	expectancy_object	0	500	0	0	3	0	12358	1	When you saw the <b>object</b>,   to what <b>degree (0-100%)</b> did you expect the <b>unpleasant sound to occur</b>?	-16	0	0	0	0	0	0
13	2023-04-13	09:57:14	10:24:51	10:24:51:548	44	1	PracticeItems_Think	fixation	0	5	1000	0	0	1	995	1	+	-8	0	0	0	0	0	0
13	2023-04-13	09:57:14	10:24:56	10:24:56:566	44	2	PracticeItems_Think	PracticeItems_Think	0	5	0	0	0	0	5000	1	+	-16	1	Cue37.jpg	-16	1	Target37.jpg	-16
13	2023-04-13	09:57:14	10:25:01	10:25:01:046	44	3	PracticeItems_Think	valence	0	5	0	0	30	0	4456	1	I found these images to be...	-16	0	0	0	0	0	0
13	2023-04-13	09:57:14	10:25:04	10:25:04:829	44	4	PracticeItems_Think	expectancy	0	500	0	0	80	0	3748	1	When you saw the <b>object-scene</b>,   to what <b>degree (0-100%)</b> did you expect the <b>unpleasant sound to occur</b>?	0	0	0	0	0	0	0
13	2023-04-13	09:57:14	10:25:06	10:25:06:829	45	1	Reminder_Objects_CSp	fixation	0	5	1500	0	0	1	1495	1	+	-15	0	0	0	0	0	0
13	2023-04-13	09:57:14	10:25:11	10:25:11:847	45	2	Reminder_Objects_CSp	Objects_CSp	0	5	0	0	0	0	5000	2	Object8.jpg	-15	0	0	0	0	0	0
13	2023-04-13	09:57:14	10:25:20	10:25:20:214	45	3	Reminder_Objects_CSp	expectancy_object	0	1000	0	0	0	0	8348	1	When you saw the <b>object</b>,   to what <b>degree (0-100%)</b> did you expect the <b>unpleasant sound to occur</b>?	-16	0	0	0	0	0	0
13	2023-04-13	09:57:14	10:25:21	10:25:21:714	46	1	Reminder_NoThink_CSp	fixation	0	5	500	0	0	1	495	1	+	-14	0	0	0	0	0	0
13	2023-04-13	09:57:14	10:25:26	10:25:26:731	46	2	Reminder_NoThink_CSp	NoThink_CSp	0	5	0	0	0	0	5000	1	+	-16	6	Cue36.jpg	-16	6	Target36.jpg	-16
13	2023-04-13	09:57:14	10:25:34	10:25:34:682	46	3	Reminder_NoThink_CSp	valence	0	5	0	0	20	0	7896	1	I found these images to be...	-16	0	0	0	0	0	0
13	2023-04-13	09:57:14	10:25:39	10:25:39:015	46	4	Reminder_NoThink_CSp	expectancy	0	1500	0	0	90	0	4272	1	When you saw the <b>object-scene</b>,   to what <b>degree (0-100%)</b> did you expect the <b>unpleasant sound to occur</b>?	-7	0	0	0	0	0	0
13	2023-04-13	09:57:14	10:25:41	10:25:41:014	47	1	Reminder_Baseline_CSm	fixation	0	5	500	0	0	1	495	1	+	-15	0	0	0	0	0	0
13	2023-04-13	09:57:14	10:25:46	10:25:46:032	47	2	Reminder_Baseline_CSm	Baseline_CSm	0	5	0	0	0	0	5000	1	+	-14	1	Cue19.jpg	-14	1	Target19.jpg	-14
13	2023-04-13	09:57:14	10:25:50	10:25:50:799	47	3	Reminder_Baseline_CSm	valence	0	5	0	0	40	0	4747	1	I found these images to be...	-16	0	0	0	0	0	0
13	2023-04-13	09:57:14	10:25:58	10:25:58:766	47	4	Reminder_Baseline_CSm	expectancy	0	1000	0	0	60	0	7899	1	When you saw the <b>object-scene</b>,   to what <b>degree (0-100%)</b> did you expect the <b>unpleasant sound to occur</b>?	-12	0	0	0	0	0	0
13	2023-04-13	09:57:14	10:26:01	10:26:01:248	48	1	PracticeItems_Think	fixation	0	5	1500	0	0	1	1495	1	+	-15	0	0	0	0	0	0
13	2023-04-13	09:57:14	10:26:06	10:26:06:267	48	2	PracticeItems_Think	PracticeItems_Think	0	5	0	0	0	0	5000	1	+	-14	2	Cue38.jpg	-14	2	Target38.jpg	-14
13	2023-04-13	09:57:14	10:26:11	10:26:11:117	48	3	PracticeItems_Think	valence	0	5	0	0	10	0	4800	1	I found these images to be...	-16	0	0	0	0	0	0
13	2023-04-13	09:57:14	10:26:14	10:26:14:434	48	4	PracticeItems_Think	expectancy	0	500	0	0	70	0	3269	1	When you saw the <b>object-scene</b>,   to what <b>degree (0-100%)</b> did you expect the <b>unpleasant sound to occur</b>?	-12	0	0	0	0	0	0
13	2023-04-13	09:57:14	10:26:15	10:26:15:933	49	1	Reminder_Think_CSp	fixation	0	5	1000	0	0	1	995	1	+	-15	0	0	0	0	0	0
13	2023-04-13	09:57:14	10:26:21	10:26:21:951	49	2	Reminder_Think_CSp	Think_CSp	0	5	0	0	0	0	5000	1	+	-14	4	Cue34.jpg	-14	4	Target34.jpg	-14
13	2023-04-13	09:57:14	10:26:24	10:26:24:518	49	3	Reminder_Think_CSp	valence	0	5	0	0	20	0	3516	1	I found these images to be...	-16	0	0	0	0	0	0
13	2023-04-13	09:57:14	10:26:28	10:26:28:385	49	4	Reminder_Think_CSp	expectancy	0	1500	0	0	60	0	3820	1	When you saw the <b>object-scene</b>,   to what <b>degree (0-100%)</b> did you expect the <b>unpleasant sound to occur</b>?	-7	0	0	0	0	0	0
13	2023-04-13	09:57:14	10:31:55	10:31:55:02	2	1	Practice_NoThink	fixation	0	5	1000	0	0	1	995	1	+	-16	0	0	0	0	0	0
13	2023-04-13	09:57:14	10:31:56	10:31:56:019	2	2	Practice_NoThink	NoThink	0	5	0	0	0	0	1000	1	DON'T THINK	-16	0	0	0	0	0	0
13	2023-04-13	09:57:14	10:32:01	10:32:01:036	2	3	Practice_NoThink	NoThinkCue	0	5	0	0	0	1	5000	1	Cue39.jpg	-16	0	0	0	0	0	0
13	2023-04-13	09:57:14	10:32:02	10:32:02:560	2	4	Practice_NoThink	Intrusion	0	1500	3000	0	0	0	1500	1	How <b>often</b> did you <b>think</b> about the <b>scene</b>?   <center><br><b>NEVER (1)    BRIEFLY (2)   OFTEN (3) </b>	-14	0	0	0	0	0	0
13	2023-04-13	09:57:14	10:32:05	10:32:05:540	3	1	Practice_NoThink	fixation	0	5	1500	0	0	1	1495	1	+	-16	0	0	0	0	0	0
13	2023-04-13	09:57:14	10:32:06	10:32:06:553	3	2	Practice_NoThink	NoThink	0	5	0	0	0	0	1000	1	DON'T THINK	-16	0	0	0	0	0	0
13	2023-04-13	09:57:14	10:32:11	10:32:11:570	3	3	Practice_NoThink	NoThinkCue	0	5	0	0	0	1	5000	2	Cue40.jpg	-16	0	0	0	0	0	0
13	2023-04-13	09:57:14	10:32:14	10:32:14:076	3	4	Practice_NoThink	Intrusion	0	500	3000	0	0	0	2500	1	How <b>often</b> did you <b>think</b> about the <b>scene</b>?   <center><br><b>NEVER (1)    BRIEFLY (2)   OFTEN (3) </b>	-16	0	0	0	0	0	0
13	2023-04-13	09:57:14	10:32:15	10:32:15:074	4	1	Practice_Think	fixation	0	5	500	0	0	1	495	1	+	-16	0	0	0	0	0	0
13	2023-04-13	09:57:14	10:32:16	10:32:16:087	4	2	Practice_Think	Think	0	5	0	0	0	0	1000	1	THINK	-16	0	0	0	0	0	0
13	2023-04-13	09:57:14	10:32:21	10:32:21:104	4	3	Practice_Think	ThinkCue	0	5	0	0	0	1	5000	1	Cue37.jpg	-16	0	0	0	0	0	0
13	2023-04-13	09:57:14	10:32:23	10:32:23:810	4	4	Practice_Think	Intrusion	0	1000	3000	0	4	1	1689	1	How <b>often</b> did you <b>think</b> about the <b>scene</b>?   <center><br><b>NEVER (1)    BRIEFLY (2)   OFTEN (3) </b>	-16	0	0	0	0	0	0
13	2023-04-13	09:57:14	10:32:24	10:32:24:608	5	1	Practice_Think	fixation	0	5	500	0	0	1	495	1	+	-16	0	0	0	0	0	0
13	2023-04-13	09:57:14	10:32:25	10:32:25:621	5	2	Practice_Think	Think	0	5	0	0	0	0	1000	1	THINK	-16	0	0	0	0	0	0
13	2023-04-13	09:57:14	10:32:30	10:32:30:638	5	3	Practice_Think	ThinkCue	0	5	0	0	0	1	5000	2	Cue38.jpg	-16	0	0	0	0	0	0
13	2023-04-13	09:57:14	10:32:32	10:32:32:619	5	4	Practice_Think	Intrusion	0	1000	3000	0	4	1	1963	1	How <b>often</b> did you <b>think</b> about the <b>scene</b>?   <center><br><b>NEVER (1)    BRIEFLY (2)   OFTEN (3) </b>	-16	0	0	0	0	0	0
13	2023-04-13	09:57:14	10:36:47	10:36:47:339	6	1	Practice_Betweenblocks1	Practice_Betweenblocks1	0	5	0	0	57	1	253667	1	<center><br><br><br><br>This is the end of the first practice round. <br><br>There will be 2 more practice rounds.  <br><br> Please await further instruction from the experimenter.	-16	0	0	0	0	0	0
13	2023-04-13	09:57:14	10:36:49	10:36:49:841	7	1	Practice_Think	fixation	0	5	1500	0	0	1	1495	1	+	-16	0	0	0	0	0	0
13	2023-04-13	09:57:14	10:36:50	10:36:50:852	7	2	Practice_Think	Think	0	5	0	0	0	0	1000	1	THINK	-16	0	0	0	0	0	0
13	2023-04-13	09:57:14	10:36:55	10:36:55:869	7	3	Practice_Think	ThinkCue	0	5	0	0	0	1	5000	1	Cue37.jpg	-16	0	0	0	0	0	0
13	2023-04-13	09:57:14	10:36:56	10:36:56:377	7	4	Practice_Think	Intrusion	0	1500	3000	0	0	0	1500	1	How <b>often</b> did you <b>think</b> about the <b>scene</b>?   <center><br><b>NEVER (1)    BRIEFLY (2)   OFTEN (3) </b>	-16	0	0	0	0	0	0
13	2023-04-13	09:57:14	10:36:59	10:36:59:873	8	1	Practice_NoThink	fixation	0	5	1000	0	0	1	995	1	+	-8	0	0	0	0	0	0
13	2023-04-13	09:57:14	10:37:00	10:37:00:887	8	2	Practice_NoThink	NoThink	0	5	0	0	0	0	1000	1	DON'T THINK	-16	0	0	0	0	0	0
13	2023-04-13	09:57:14	10:37:05	10:37:05:903	8	3	Practice_NoThink	NoThinkCue	0	5	0	0	0	1	5000	1	Cue39.jpg	-16	0	0	0	0	0	0
13	2023-04-13	09:57:14	10:37:06	10:37:06:587	8	4	Practice_NoThink	Intrusion	0	500	3000	0	3	1	1665	1	How <b>often</b> did you <b>think</b> about the <b>scene</b>?   <center><br><b>NEVER (1)    BRIEFLY (2)   OFTEN (3) </b>	-16	0	0	0	0	0	0
13	2023-04-13	09:57:14	10:37:09	10:37:09:907	9	1	Practice_Think	fixation	0	5	1000	0	0	1	995	1	+	-16	0	0	0	0	0	0
13	2023-04-13	09:57:14	10:37:10	10:37:10:920	9	2	Practice_Think	Think	0	5	0	0	0	0	1000	1	THINK	-16	0	0	0	0	0	0
13	2023-04-13	09:57:14	10:37:15	10:37:15:937	9	3	Practice_Think	ThinkCue	0	5	0	0	0	1	5000	2	Cue38.jpg	-16	0	0	0	0	0	0
13	2023-04-13	09:57:14	10:37:16	10:37:16:771	9	4	Practice_Think	Intrusion	0	1500	3000	0	4	1	816	1	How <b>often</b> did you <b>think</b> about the <b>scene</b>?   <center><br><b>NEVER (1)    BRIEFLY (2)   OFTEN (3) </b>	-16	0	0	0	0	0	0
13	2023-04-13	09:57:14	10:37:19	10:37:19:441	10	1	Practice_NoThink	fixation	0	5	1500	0	0	1	1495	1	+	-16	0	0	0	0	0	0
13	2023-04-13	09:57:14	10:37:20	10:37:20:454	10	2	Practice_NoThink	NoThink	0	5	0	0	0	0	1000	1	DON'T THINK	-16	0	0	0	0	0	0
13	2023-04-13	09:57:14	10:37:25	10:37:25:471	10	3	Practice_NoThink	NoThinkCue	0	5	0	0	0	1	5000	2	Cue40.jpg	-16	0	0	0	0	0	0
13	2023-04-13	09:57:14	10:37:26	10:37:26:379	10	4	Practice_NoThink	Intrusion	0	500	3000	0	2	1	890	1	How <b>often</b> did you <b>think</b> about the <b>scene</b>?   <center><br><b>NEVER (1)    BRIEFLY (2)   OFTEN (3) </b>	-16	0	0	0	0	0	0
13	2023-04-13	09:57:14	10:41:34	10:41:34:556	11	1	Practice_Betweenblocks2	Practice_Betweenblocks2	0	5	0	0	57	1	246033	1	<center><br><br><br><br>This is the end of the second practice round. <br><br>There will be 1 more practice round.  <br><br> Please await further instruction from the experimenter.	-7	0	0	0	0	0	0
13	2023-04-13	09:57:14	10:41:35	10:41:35:058	12	1	Practice_NoThink	fixation	0	5	500	0	0	1	495	1	+	-8	0	0	0	0	0	0
13	2023-04-13	09:57:14	10:41:36	10:41:36:069	12	2	Practice_NoThink	NoThink	0	5	0	0	0	0	1000	1	DON'T THINK	-16	0	0	0	0	0	0
13	2023-04-13	09:57:14	10:41:41	10:41:41:086	12	3	Practice_NoThink	NoThinkCue	0	5	0	0	0	1	5000	1	Cue39.jpg	-16	0	0	0	0	0	0
13	2023-04-13	09:57:14	10:41:42	10:41:42:123	12	4	Practice_NoThink	Intrusion	0	1000	3000	0	2	1	1020	1	How <b>often</b> did you <b>think</b> about the <b>scene</b>?   <center><br><b>NEVER (1)    BRIEFLY (2)   OFTEN (3) </b>	-16	0	0	0	0	0	0
13	2023-04-13	09:57:14	10:41:44	10:41:44:590	13	1	Practice_Think	fixation	0	5	500	0	0	1	495	1	+	-16	0	0	0	0	0	0
13	2023-04-13	09:57:14	10:41:45	10:41:45:603	13	2	Practice_Think	Think	0	5	0	0	0	0	1000	1	THINK	-16	0	0	0	0	0	0
13	2023-04-13	09:57:14	10:41:50	10:41:50:620	13	3	Practice_Think	ThinkCue	0	5	0	0	0	1	5000	1	Cue37.jpg	-16	0	0	0	0	0	0
13	2023-04-13	09:57:14	10:41:52	10:41:52:787	13	4	Practice_Think	Intrusion	0	1000	3000	0	4	1	1150	1	How <b>often</b> did you <b>think</b> about the <b>scene</b>?   <center><br><b>NEVER (1)    BRIEFLY (2)   OFTEN (3) </b>	-16	0	0	0	0	0	0
13	2023-04-13	09:57:14	10:41:54	10:41:54:624	14	1	Practice_NoThink	fixation	0	5	1000	0	0	1	995	1	+	-16	0	0	0	0	0	0
13	2023-04-13	09:57:14	10:41:55	10:41:55:637	14	2	Practice_NoThink	NoThink	0	5	0	0	0	0	1000	1	DON'T THINK	-16	0	0	0	0	0	0
13	2023-04-13	09:57:14	10:42:00	10:42:00:654	14	3	Practice_NoThink	NoThinkCue	0	5	0	0	0	1	5000	2	Cue40.jpg	-16	0	0	0	0	0	0
13	2023-04-13	09:57:14	10:42:01	10:42:01:547	14	4	Practice_NoThink	Intrusion	0	1500	3000	0	2	1	876	1	How <b>often</b> did you <b>think</b> about the <b>scene</b>?   <center><br><b>NEVER (1)    BRIEFLY (2)   OFTEN (3) </b>	-16	0	0	0	0	0	0
13	2023-04-13	09:57:14	10:42:05	10:42:05:158	15	1	Practice_Think	fixation	0	5	1500	0	0	1	1495	1	+	-16	0	0	0	0	0	0
13	2023-04-13	09:57:14	10:42:06	10:42:06:171	15	2	Practice_Think	Think	0	5	0	0	0	0	1000	1	THINK	-16	0	0	0	0	0	0
13	2023-04-13	09:57:14	10:42:11	10:42:11:188	15	3	Practice_Think	ThinkCue	0	5	0	0	0	1	5000	2	Cue38.jpg	-16	0	0	0	0	0	0
13	2023-04-13	09:57:14	10:42:12	10:42:12:347	15	4	Practice_Think	Intrusion	0	500	3000	0	4	1	1142	1	How <b>often</b> did you <b>think</b> about the <b>scene</b>?   <center><br><b>NEVER (1)    BRIEFLY (2)   OFTEN (3) </b>	-16	0	0	0	0	0	0
13	2023-04-13	09:57:14	10:42:28	10:42:28:283	1	1	countdown	instructions	0	5	0	0	57	0	4211	1	<center><br><br> <b>WATCH CALLIBRATION</b>.                <br><br><br><br>In a couple of seconds a <b>countdown</b> will start that counts down from 3 to 1,       <br><br>after which the screen will show the instruction <b>PRESS BUTTON</b>.       <br><br><b>As soon as you see that screen</b>, you must shortly press the button on your watch.       <br><br> <br><br> Press SPACE  to continue.	-4	0	0	0	0	0	0
13	2023-04-13	09:57:14	10:42:29	10:42:29:305	1	2	countdown	countdown_3	0	5	0	0	0	0	1000	1	3	-8	0	0	0	0	0	0
13	2023-04-13	09:57:14	10:42:30	10:42:30:322	1	3	countdown	countdown_2	0	5	0	0	0	0	1000	1	2	-16	0	0	0	0	0	0
13	2023-04-13	09:57:14	10:42:31	10:42:31:339	1	4	countdown	countdown_1	0	5	0	0	0	0	1000	1	1	-16	0	0	0	0	0	0
13	2023-04-13	09:57:14	10:42:32	10:42:32:356	1	5	countdown	press_button	0	5	0	0	0	0	1000	1	PRESS BUTTON NOW	-16	0	0	0	0	0	0
13	2023-04-13	09:57:14	10:42:38	10:42:38:500	2	1	TNT_NoThink_CSp	fixation	0	5	500	0	0	1	495	1	+	-8	0	0	0	0	0	0
13	2023-04-13	09:57:14	10:42:39	10:42:39:519	2	2	TNT_NoThink_CSp	NoThink	0	5	0	0	0	0	1000	1	DON'T THINK	-16	0	0	0	0	0	0
13	2023-04-13	09:57:14	10:42:44	10:42:44:536	2	3	TNT_NoThink_CSp	TNT_NoThink_CSp	0	5	0	0	0	0	5000	1	Cue33.jpg	-16	0	0	0	0	0	0
13	2023-04-13	09:57:14	10:42:45	10:42:45:097	2	4	TNT_NoThink_CSp	Intrusion	0	1000	3000	0	2	1	1543	1	How <b>often</b> did you <b>think</b> about the <b>scene</b>?   <center><br><b>NEVER (1)    BRIEFLY (2)   OFTEN (3) </b>	-16	0	0	0	0	0	0
13	2023-04-13	09:57:14	10:42:48	10:42:48:040	3	1	TNT_NoThink_CSp	fixation	0	5	1500	0	0	1	1495	1	+	-16	0	0	0	0	0	0
13	2023-04-13	09:57:14	10:42:49	10:42:49:053	3	2	TNT_NoThink_CSp	NoThink	0	5	0	0	0	0	1000	1	DON'T THINK	-16	0	0	0	0	0	0
13	2023-04-13	09:57:14	10:42:54	10:42:54:070	3	3	TNT_NoThink_CSp	TNT_NoThink_CSp	0	5	0	0	0	0	5000	4	Cue29.jpg	-16	0	0	0	0	0	0
13	2023-04-13	09:57:14	10:42:56	10:42:56:576	3	4	TNT_NoThink_CSp	Intrusion	0	1500	3000	0	0	0	1500	1	How <b>often</b> did you <b>think</b> about the <b>scene</b>?   <center><br><b>NEVER (1)    BRIEFLY (2)   OFTEN (3) </b>	-16	0	0	0	0	0	0
13	2023-04-13	09:57:14	10:42:58	10:42:58:074	4	1	TNT_Think_CSp	fixation	0	5	1000	0	0	1	995	1	+	-16	0	0	0	0	0	0
13	2023-04-13	09:57:14	10:42:59	10:42:59:087	4	2	TNT_Think_CSp	Think	0	5	0	0	0	0	1000	1	THINK	-16	0	0	0	0	0	0
13	2023-04-13	09:57:14	10:43:04	10:43:04:104	4	3	TNT_Think_CSp	TNT_Think_CSp	0	5	0	0	0	0	5000	6	Cue21.jpg	-16	0	0	0	0	0	0
13	2023-04-13	09:57:14	10:43:06	10:43:06:056	4	4	TNT_Think_CSp	Intrusion	0	500	3000	0	4	1	1935	1	How <b>often</b> did you <b>think</b> about the <b>scene</b>?   <center><br><b>NEVER (1)    BRIEFLY (2)   OFTEN (3) </b>	-16	0	0	0	0	0	0
13	2023-04-13	09:57:14	10:43:08	10:43:08:108	5	1	TNT_NoThink_CSm	fixation	0	5	1000	0	0	1	995	1	+	-16	0	0	0	0	0	0
13	2023-04-13	09:57:14	10:43:09	10:43:09:121	5	2	TNT_NoThink_CSm	NoThink	0	5	0	0	0	0	1000	1	DON'T THINK	-16	0	0	0	0	0	0
13	2023-04-13	09:57:14	10:43:14	10:43:14:137	5	3	TNT_NoThink_CSm	TNT_NoThink_CSm	0	5	0	0	0	0	5000	3	Cue1.jpg	-16	0	0	0	0	0	0
13	2023-04-13	09:57:14	10:43:15	10:43:15:144	5	4	TNT_NoThink_CSm	Intrusion	0	500	3000	0	2	1	990	1	How <b>often</b> did you <b>think</b> about the <b>scene</b>?   <center><br><b>NEVER (1)    BRIEFLY (2)   OFTEN (3) </b>	-16	0	0	0	0	0	0
13	2023-04-13	09:57:14	10:43:19	10:43:19:641	6	1	TNT_Think_CSp	fixation	0	5	1500	0	0	1	1495	1	+	-16	0	0	0	0	0	0
13	2023-04-13	09:57:14	10:43:20	10:43:20:654	6	2	TNT_Think_CSp	Think	0	5	0	0	0	0	1000	1	THINK	-16	0	0	0	0	0	0
13	2023-04-13	09:57:14	10:43:25	10:43:25:672	6	3	TNT_Think_CSp	TNT_Think_CSp	0	5	0	0	0	0	5000	5	Cue22.jpg	-16	0	0	0	0	0	0
13	2023-04-13	09:57:14	10:43:26	10:43:26:880	6	4	TNT_Think_CSp	Intrusion	0	1000	3000	0	4	1	1191	1	How <b>often</b> did you <b>think</b> about the <b>scene</b>?   <center><br><b>NEVER (1)    BRIEFLY (2)   OFTEN (3) </b>	-16	0	0	0	0	0	0
13	2023-04-13	09:57:14	10:43:28	10:43:28:175	7	1	TNT_NoThink_CSp	fixation	0	5	500	0	0	1	495	1	+	-16	0	0	0	0	0	0
13	2023-04-13	09:57:14	10:43:29	10:43:29:189	7	2	TNT_NoThink_CSp	NoThink	0	5	0	0	0	0	1000	1	DON'T THINK	-16	0	0	0	0	0	0
13	2023-04-13	09:57:14	10:43:34	10:43:34:205	7	3	TNT_NoThink_CSp	TNT_NoThink_CSp	0	5	0	0	0	0	5000	6	Cue36.jpg	-16	0	0	0	0	0	0
13	2023-04-13	09:57:14	10:43:35	10:43:35:728	7	4	TNT_NoThink_CSp	Intrusion	0	1500	3000	0	3	1	506	1	How <b>often</b> did you <b>think</b> about the <b>scene</b>?   <center><br><b>NEVER (1)    BRIEFLY (2)   OFTEN (3) </b>	-16	0	0	0	0	0	0
13	2023-04-13	09:57:14	10:43:39	10:43:39:709	8	1	TNT_NoThink_CSm	fixation	0	5	1500	0	0	1	1495	1	+	-8	0	0	0	0	0	0
13	2023-04-13	09:57:14	10:43:40	10:43:40:723	8	2	TNT_NoThink_CSm	NoThink	0	5	0	0	0	0	1000	1	DON'T THINK	-16	0	0	0	0	0	0
13	2023-04-13	09:57:14	10:43:45	10:43:45:739	8	3	TNT_NoThink_CSm	TNT_NoThink_CSm	0	5	0	0	0	0	5000	5	Cue26.jpg	-16	0	0	0	0	0	0
13	2023-04-13	09:57:14	10:43:46	10:43:46:592	8	4	TNT_NoThink_CSm	Intrusion	0	1500	3000	0	2	1	836	1	How <b>often</b> did you <b>think</b> about the <b>scene</b>?   <center><br><b>NEVER (1)    BRIEFLY (2)   OFTEN (3) </b>	-16	0	0	0	0	0	0
13	2023-04-13	09:57:14	10:43:49	10:43:49:743	9	1	TNT_Think_CSp	fixation	0	5	1000	0	0	1	995	1	+	-8	0	0	0	0	0	0
13	2023-04-13	09:57:14	10:43:50	10:43:50:756	9	2	TNT_Think_CSp	Think	0	5	0	0	0	0	1000	1	THINK	-16	0	0	0	0	0	0
13	2023-04-13	09:57:14	10:43:55	10:43:55:773	9	3	TNT_Think_CSp	TNT_Think_CSp	0	5	0	0	0	0	5000	4	Cue34.jpg	-16	0	0	0	0	0	0
13	2023-04-13	09:57:14	10:43:55	10:43:55:224	9	4	TNT_Think_CSp	Intrusion	0	1000	3000	0	4	1	434	1	How <b>often</b> did you <b>think</b> about the <b>scene</b>?   <center><br><b>NEVER (1)    BRIEFLY (2)   OFTEN (3) </b>	-16	0	0	0	0	0	0
13	2023-04-13	09:57:14	10:43:58	10:43:58:277	10	1	TNT_NoThink_CSm	fixation	0	5	500	0	0	1	495	1	+	-8	0	0	0	0	0	0
13	2023-04-13	09:57:14	10:43:59	10:43:59:291	10	2	TNT_NoThink_CSm	NoThink	0	5	0	0	0	0	1000	1	DON'T THINK	-16	0	0	0	0	0	0
13	2023-04-13	09:57:14	10:44:05	10:44:05:307	10	3	TNT_NoThink_CSm	TNT_NoThink_CSm	0	5	0	0	0	0	5000	1	Cue28.jpg	-16	0	0	0	0	0	0
13	2023-04-13	09:57:14	10:44:05	10:44:05:792	10	4	TNT_NoThink_CSm	Intrusion	0	500	3000	0	2	1	468	1	How <b>often</b> did you <b>think</b> about the <b>scene</b>?   <center><br><b>NEVER (1)    BRIEFLY (2)   OFTEN (3) </b>	-16	0	0	0	0	0	0
13	2023-04-13	09:57:14	10:44:08	10:44:08:811	11	1	TNT_NoThink_CSm	fixation	0	5	500	0	0	1	495	1	+	-8	0	0	0	0	0	0
13	2023-04-13	09:57:14	10:44:09	10:44:09:825	11	2	TNT_NoThink_CSm	NoThink	0	5	0	0	0	0	1000	1	DON'T THINK	-16	0	0	0	0	0	0
13	2023-04-13	09:57:14	10:44:14	10:44:14:841	11	3	TNT_NoThink_CSm	TNT_NoThink_CSm	0	5	0	0	0	0	5000	4	Cue18.jpg	-16	0	0	0	0	0	0
13	2023-04-13	09:57:14	10:44:15	10:44:15:440	11	4	TNT_NoThink_CSm	Intrusion	0	500	3000	0	3	1	582	1	How <b>often</b> did you <b>think</b> about the <b>scene</b>?   <center><br><b>NEVER (1)    BRIEFLY (2)   OFTEN (3) </b>	-16	0	0	0	0	0	0
13	2023-04-13	09:57:14	10:44:19	10:44:19:345	12	1	TNT_Object_CSp	fixation	0	5	1500	0	0	1	1495	1	+	-8	0	0	0	0	0	0
13	2023-04-13	09:57:14	10:44:20	10:44:20:358	12	2	TNT_Object_CSp	Passive	0	5	0	0	0	0	1000	1	VIEW	-16	0	0	0	0	0	0
13	2023-04-13	09:57:14	10:44:25	10:44:25:375	12	3	TNT_Object_CSp	TNT_Object_CSp	0	500	0	0	0	0	5000	4	Object1.jpg	-16	0	0	0	0	0	0
13	2023-04-13	09:57:14	10:44:26	10:44:26:875	13	1	TNT_Think_CSp	fixation	0	5	1000	0	0	1	995	1	+	-8	0	0	0	0	0	0
13	2023-04-13	09:57:14	10:44:27	10:44:27:892	13	2	TNT_Think_CSp	Think	0	5	0	0	0	0	1000	1	THINK	-16	0	0	0	0	0	0
13	2023-04-13	09:57:14	10:44:32	10:44:32:909	13	3	TNT_Think_CSp	TNT_Think_CSp	0	5	0	0	0	0	5000	1	Cue30.jpg	-16	0	0	0	0	0	0
13	2023-04-13	09:57:14	10:44:33	10:44:33:824	13	4	TNT_Think_CSp	Intrusion	0	1000	3000	0	4	1	898	1	How <b>often</b> did you <b>think</b> about the <b>scene</b>?   <center><br><b>NEVER (1)    BRIEFLY (2)   OFTEN (3) </b>	-16	0	0	0	0	0	0
13	2023-04-13	09:57:14	10:44:37	10:44:37:413	14	1	TNT_NoThink_CSp	fixation	0	5	1500	0	0	1	1495	1	+	-8	0	0	0	0	0	0
13	2023-04-13	09:57:14	10:44:38	10:44:38:426	14	2	TNT_NoThink_CSp	NoThink	0	5	0	0	0	0	1000	1	DON'T THINK	-16	0	0	0	0	0	0
13	2023-04-13	09:57:14	10:44:43	10:44:43:443	14	3	TNT_NoThink_CSp	TNT_NoThink_CSp	0	5	0	0	0	0	5000	5	Cue5.jpg	-16	0	0	0	0	0	0
13	2023-04-13	09:57:14	10:44:43	10:44:43:113	14	4	TNT_NoThink_CSp	Intrusion	0	1500	3000	0	3	1	652	1	How <b>often</b> did you <b>think</b> about the <b>scene</b>?   <center><br><b>NEVER (1)    BRIEFLY (2)   OFTEN (3) </b>	-16	0	0	0	0	0	0
13	2023-04-13	09:57:14	10:44:47	10:44:47:447	15	1	TNT_Object_CSm	fixation	0	5	1000	0	0	1	995	1	+	-8	0	0	0	0	0	0
13	2023-04-13	09:57:14	10:44:48	10:44:48:460	15	2	TNT_Object_CSm	Passive	0	5	0	0	0	0	1000	1	VIEW	-16	0	0	0	0	0	0
13	2023-04-13	09:57:14	10:44:53	10:44:53:477	15	3	TNT_Object_CSm	TNT_Object_CSm	0	1000	0	0	0	0	5000	4	Object5.jpg	-16	0	0	0	0	0	0
13	2023-04-13	09:57:14	10:44:54	10:44:54:977	16	1	TNT_Think_CSm	fixation	0	5	500	0	0	1	495	1	+	-8	0	0	0	0	0	0
13	2023-04-13	09:57:14	10:44:55	10:44:55:993	16	2	TNT_Think_CSm	Think	0	5	0	0	0	0	1000	1	THINK	-16	0	0	0	0	0	0
13	2023-04-13	09:57:14	10:45:00	10:45:00:010	16	3	TNT_Think_CSm	TNT_Think_CSm	0	5	0	0	0	0	5000	1	Cue6.jpg	-16	0	0	0	0	0	0
13	2023-04-13	09:57:14	10:45:01	10:45:01:760	16	4	TNT_Think_CSm	Intrusion	0	500	3000	0	4	1	733	1	How <b>often</b> did you <b>think</b> about the <b>scene</b>?   <center><br><b>NEVER (1)    BRIEFLY (2)   OFTEN (3) </b>	-16	0	0	0	0	0	0
13	2023-04-13	09:57:14	10:45:04	10:45:04:013	17	1	TNT_Object_CSm	fixation	0	5	1000	0	0	1	995	1	+	-8	0	0	0	0	0	0
13	2023-04-13	09:57:14	10:45:05	10:45:05:027	17	2	TNT_Object_CSm	Passive	0	5	0	0	0	0	1000	1	VIEW	-16	0	0	0	0	0	0
13	2023-04-13	09:57:14	10:45:10	10:45:10:044	17	3	TNT_Object_CSm	TNT_Object_CSm	0	500	0	0	0	0	5000	3	Object4.jpg	-16	0	0	0	0	0	0
13	2023-04-13	09:57:14	10:45:11	10:45:11:044	18	1	TNT_Object_CSm	fixation	0	5	500	0	0	1	495	1	+	-8	0	0	0	0	0	0
13	2023-04-13	09:57:14	10:45:12	10:45:12:061	18	2	TNT_Object_CSm	Passive	0	5	0	0	0	0	1000	1	VIEW	-16	0	0	0	0	0	0
13	2023-04-13	09:57:14	10:45:17	10:45:17:078	18	3	TNT_Object_CSm	TNT_Object_CSm	0	1500	0	0	0	0	5000	2	Object2.jpg	-16	0	0	0	0	0	0
13	2023-04-13	09:57:14	10:45:20	10:45:20:078	19	1	TNT_Think_CSm	fixation	0	5	1500	0	0	1	1495	1	+	-4	0	0	0	0	0	0
13	2023-04-13	09:57:14	10:45:21	10:45:21:095	19	2	TNT_Think_CSm	Think	0	5	0	0	0	0	1000	1	THINK	-16	0	0	0	0	0	0
13	2023-04-13	09:57:14	10:45:26	10:45:26:112	19	3	TNT_Think_CSm	TNT_Think_CSm	0	5	0	0	0	0	5000	5	Cue7.jpg	-16	0	0	0	0	0	0
13	2023-04-13	09:57:14	10:45:27	10:45:27:016	19	4	TNT_Think_CSm	Intrusion	0	1000	3000	0	4	1	887	1	How <b>often</b> did you <b>think</b> about the <b>scene</b>?   <center><br><b>NEVER (1)    BRIEFLY (2)   OFTEN (3) </b>	-16	0	0	0	0	0	0
13	2023-04-13	09:57:14	10:45:30	10:45:30:616	20	1	TNT_NoThink_CSm	fixation	0	5	500	0	0	1	495	1	+	-8	0	0	0	0	0	0
13	2023-04-13	09:57:14	10:45:31	10:45:31:629	20	2	TNT_NoThink_CSm	NoThink	0	5	0	0	0	0	1000	1	DON'T THINK	-16	0	0	0	0	0	0
13	2023-04-13	09:57:14	10:45:36	10:45:36:646	20	3	TNT_NoThink_CSm	TNT_NoThink_CSm	0	5	0	0	0	0	5000	6	Cue16.jpg	-16	0	0	0	0	0	0
13	2023-04-13	09:57:14	10:45:37	10:45:37:600	20	4	TNT_NoThink_CSm	Intrusion	0	1500	3000	0	3	1	937	1	How <b>often</b> did you <b>think</b> about the <b>scene</b>?   <center><br><b>NEVER (1)    BRIEFLY (2)   OFTEN (3) </b>	-16	0	0	0	0	0	0
13	2023-04-13	09:57:14	10:45:40	10:45:40:650	21	1	TNT_Think_CSm	fixation	0	5	1000	0	0	1	995	1	+	-8	0	0	0	0	0	0
13	2023-04-13	09:57:14	10:45:41	10:45:41:663	21	2	TNT_Think_CSm	Think	0	5	0	0	0	0	1000	1	THINK	-16	0	0	0	0	0	0
13	2023-04-13	09:57:14	10:45:46	10:45:46:679	21	3	TNT_Think_CSm	TNT_Think_CSm	0	5	0	0	0	0	5000	2	Cue15.jpg	-16	0	0	0	0	0	0
13	2023-04-13	09:57:14	10:45:47	10:45:47:696	21	4	TNT_Think_CSm	Intrusion	0	1500	3000	0	4	1	999	1	How <b>often</b> did you <b>think</b> about the <b>scene</b>?   <center><br><b>NEVER (1)    BRIEFLY (2)   OFTEN (3) </b>	-16	0	0	0	0	0	0
13	2023-04-13	09:57:14	10:45:50	10:45:50:183	22	1	TNT_Think_CSp	fixation	0	5	1500	0	0	1	1495	1	+	-16	0	0	0	0	0	0
13	2023-04-13	09:57:14	10:45:51	10:45:51:197	22	2	TNT_Think_CSp	Think	0	5	0	0	0	0	1000	1	THINK	-16	0	0	0	0	0	0
13	2023-04-13	09:57:14	10:45:56	10:45:56:214	22	3	TNT_Think_CSp	TNT_Think_CSp	0	5	0	0	0	0	5000	3	Cue20.jpg	-16	0	0	0	0	0	0
13	2023-04-13	09:57:14	10:45:57	10:45:57:032	22	4	TNT_Think_CSp	Intrusion	0	500	3000	0	4	1	802	1	How <b>often</b> did you <b>think</b> about the <b>scene</b>?   <center><br><b>NEVER (1)    BRIEFLY (2)   OFTEN (3) </b>	-16	0	0	0	0	0	0
13	2023-04-13	09:57:14	10:46:01	10:46:01:718	23	1	TNT_Think_CSm	fixation	0	5	1500	0	0	1	1495	1	+	-8	0	0	0	0	0	0
13	2023-04-13	09:57:14	10:46:02	10:46:02:731	23	2	TNT_Think_CSm	Think	0	5	0	0	0	0	1000	1	THINK	-16	0	0	0	0	0	0
13	2023-04-13	09:57:14	10:46:07	10:46:07:748	23	3	TNT_Think_CSm	TNT_Think_CSm	0	5	0	0	0	0	5000	3	Cue14.jpg	-16	0	0	0	0	0	0
13	2023-04-13	09:57:14	10:46:08	10:46:08:817	23	4	TNT_Think_CSm	Intrusion	0	1000	3000	0	4	1	1051	1	How <b>often</b> did you <b>think</b> about the <b>scene</b>?   <center><br><b>NEVER (1)    BRIEFLY (2)   OFTEN (3) </b>	-16	0	0	0	0	0	0
13	2023-04-13	09:57:14	10:46:10	10:46:10:252	24	1	TNT_NoThink_CSp	fixation	0	5	500	0	0	1	495	1	+	-16	0	0	0	0	0	0
13	2023-04-13	09:57:14	10:46:11	10:46:11:265	24	2	TNT_NoThink_CSp	NoThink	0	5	0	0	0	0	1000	1	DON'T THINK	-16	0	0	0	0	0	0
13	2023-04-13	09:57:14	10:46:16	10:46:16:281	24	3	TNT_NoThink_CSp	TNT_NoThink_CSp	0	5	0	0	0	0	5000	3	Cue31.jpg	-16	0	0	0	0	0	0
13	2023-04-13	09:57:14	10:46:17	10:46:17:841	24	4	TNT_NoThink_CSp	Intrusion	0	1500	3000	0	3	1	541	1	How <b>often</b> did you <b>think</b> about the <b>scene</b>?   <center><br><b>NEVER (1)    BRIEFLY (2)   OFTEN (3) </b>	-16	0	0	0	0	0	0
13	2023-04-13	09:57:14	10:46:20	10:46:20:285	25	1	TNT_Object_CSm	fixation	0	5	1000	0	0	1	995	1	+	-7	0	0	0	0	0	0
13	2023-04-13	09:57:14	10:46:22	10:46:22:299	25	2	TNT_Object_CSm	Passive	0	5	0	0	0	0	1000	1	VIEW	-16	0	0	0	0	0	0
13	2023-04-13	09:57:14	10:46:27	10:46:27:315	25	3	TNT_Object_CSm	TNT_Object_CSm	0	1000	0	0	0	0	5000	1	Object3.jpg	-16	0	0	0	0	0	0
13	2023-04-13	09:57:14	10:46:29	10:46:29:314	26	1	TNT_Object_CSp	fixation	0	5	1000	0	0	1	995	1	+	1	0	0	0	0	0	0
13	2023-04-13	09:57:14	10:46:30	10:46:30:332	26	2	TNT_Object_CSp	Passive	0	5	0	0	0	0	1000	1	VIEW	-16	0	0	0	0	0	0
13	2023-04-13	09:57:14	10:46:35	10:46:35:349	26	3	TNT_Object_CSp	TNT_Object_CSp	0	1000	0	0	0	0	5000	1	Object7.jpg	-16	0	0	0	0	0	0
13	2023-04-13	09:57:14	10:46:37	10:46:37:849	27	1	TNT_Think_CSm	fixation	0	5	1500	0	0	1	1495	1	+	-4	0	0	0	0	0	0
13	2023-04-13	09:57:14	10:46:38	10:46:38:866	27	2	TNT_Think_CSm	Think	0	5	0	0	0	0	1000	1	THINK	-16	0	0	0	0	0	0
13	2023-04-13	09:57:14	10:46:43	10:46:43:883	27	3	TNT_Think_CSm	TNT_Think_CSm	0	5	0	0	0	0	5000	4	Cue2.jpg	-16	0	0	0	0	0	0
13	2023-04-13	09:57:14	10:46:44	10:46:44:153	27	4	TNT_Think_CSm	Intrusion	0	500	3000	0	4	1	1252	1	How <b>often</b> did you <b>think</b> about the <b>scene</b>?   <center><br><b>NEVER (1)    BRIEFLY (2)   OFTEN (3) </b>	-16	0	0	0	0	0	0
13	2023-04-13	09:57:14	10:46:47	10:46:47:386	28	1	TNT_Think_CSp	fixation	0	5	500	0	0	1	495	1	+	-16	0	0	0	0	0	0
13	2023-04-13	09:57:14	10:46:48	10:46:48:400	28	2	TNT_Think_CSp	Think	0	5	0	0	0	0	1000	1	THINK	-16	0	0	0	0	0	0
13	2023-04-13	09:57:14	10:46:53	10:46:53:417	28	3	TNT_Think_CSp	TNT_Think_CSp	0	5	0	0	0	0	5000	2	Cue24.jpg	-16	0	0	0	0	0	0
13	2023-04-13	09:57:14	10:46:53	10:46:53:241	28	4	TNT_Think_CSp	Intrusion	0	1000	3000	0	4	1	806	1	How <b>often</b> did you <b>think</b> about the <b>scene</b>?   <center><br><b>NEVER (1)    BRIEFLY (2)   OFTEN (3) </b>	-16	0	0	0	0	0	0
13	2023-04-13	09:57:14	10:46:57	10:46:57:921	29	1	TNT_NoThink_CSm	fixation	0	5	1500	0	0	1	1495	1	+	-8	0	0	0	0	0	0
13	2023-04-13	09:57:14	10:46:58	10:46:58:934	29	2	TNT_NoThink_CSm	NoThink	0	5	0	0	0	0	1000	1	DON'T THINK	-16	0	0	0	0	0	0
13	2023-04-13	09:57:14	10:47:03	10:47:03:951	29	3	TNT_NoThink_CSm	TNT_NoThink_CSm	0	5	0	0	0	0	5000	2	Cue3.jpg	-16	0	0	0	0	0	0
13	2023-04-13	09:57:14	10:47:04	10:47:04:513	29	4	TNT_NoThink_CSm	Intrusion	0	1000	3000	0	3	1	544	1	How <b>often</b> did you <b>think</b> about the <b>scene</b>?   <center><br><b>NEVER (1)    BRIEFLY (2)   OFTEN (3) </b>	-16	0	0	0	0	0	0
13	2023-04-13	09:57:14	10:47:07	10:47:07:955	30	1	TNT_Object_CSp	fixation	0	5	1000	0	0	1	995	1	+	-8	0	0	0	0	0	0
13	2023-04-13	09:57:14	10:47:08	10:47:08:968	30	2	TNT_Object_CSp	Passive	0	5	0	0	0	0	1000	1	VIEW	-16	0	0	0	0	0	0
13	2023-04-13	09:57:14	10:47:13	10:47:13:985	30	3	TNT_Object_CSp	TNT_Object_CSp	0	1500	0	0	0	0	5000	2	Object8.jpg	-16	0	0	0	0	0	0
13	2023-04-13	09:57:14	10:47:15	10:47:15:984	31	1	TNT_Think_CSm	fixation	0	5	500	0	0	1	495	1	+	-8	0	0	0	0	0	0
13	2023-04-13	09:57:14	10:47:16	10:47:16:02	31	2	TNT_Think_CSm	Think	0	5	0	0	0	0	1000	1	THINK	-16	0	0	0	0	0	0
13	2023-04-13	09:57:14	10:47:21	10:47:21:018	31	3	TNT_Think_CSm	TNT_Think_CSm	0	5	0	0	0	0	5000	6	Cue35.jpg	-16	0	0	0	0	0	0
13	2023-04-13	09:57:14	10:47:22	10:47:22:609	31	4	TNT_Think_CSm	Intrusion	0	1500	3000	0	4	1	572	1	How <b>often</b> did you <b>think</b> about the <b>scene</b>?   <center><br><b>NEVER (1)    BRIEFLY (2)   OFTEN (3) </b>	-16	0	0	0	0	0	0
13	2023-04-13	09:57:14	10:47:25	10:47:25:522	32	1	TNT_NoThink_CSp	fixation	0	5	500	0	0	1	495	1	+	-16	0	0	0	0	0	0
13	2023-04-13	09:57:14	10:47:26	10:47:26:536	32	2	TNT_NoThink_CSp	NoThink	0	5	0	0	0	0	1000	1	DON'T THINK	-16	0	0	0	0	0	0
13	2023-04-13	09:57:14	10:47:31	10:47:31:552	32	3	TNT_NoThink_CSp	TNT_NoThink_CSp	0	5	0	0	0	0	5000	2	Cue23.jpg	-16	0	0	0	0	0	0
13	2023-04-13	09:57:14	10:47:32	10:47:32:337	32	4	TNT_NoThink_CSp	Intrusion	0	500	3000	0	2	1	766	1	How <b>often</b> did you <b>think</b> about the <b>scene</b>?   <center><br><b>NEVER (1)    BRIEFLY (2)   OFTEN (3) </b>	-16	0	0	0	0	0	0
13	2023-04-13	09:57:14	10:47:35	10:47:35:056	33	1	TNT_Object_CSp	fixation	0	5	1500	0	0	1	1495	1	+	-16	0	0	0	0	0	0
13	2023-04-13	09:57:14	10:47:36	10:47:36:069	33	2	TNT_Object_CSp	Passive	0	5	0	0	0	0	1000	1	VIEW	-16	0	0	0	0	0	0
13	2023-04-13	09:57:14	10:47:41	10:47:41:086	33	3	TNT_Object_CSp	TNT_Object_CSp	0	1000	0	0	0	0	5000	3	Object6.jpg	-16	0	0	0	0	0	0
13	2023-04-13	09:57:14	10:47:43	10:47:43:086	34	1	TNT_NoThink_CSp	fixation	0	5	1000	0	0	1	995	1	+	-8	0	0	0	0	0	0
13	2023-04-13	09:57:14	10:47:44	10:47:44:104	34	2	TNT_NoThink_CSp	NoThink	0	5	0	0	0	0	1000	1	DON'T THINK	-16	0	0	0	0	0	0
13	2023-04-13	09:57:14	10:47:49	10:47:49:120	34	3	TNT_NoThink_CSp	TNT_NoThink_CSp	0	5	0	0	0	0	5000	4	Cue29.jpg	-16	0	0	0	0	0	0
13	2023-04-13	09:57:14	10:47:50	10:47:50:153	34	4	TNT_NoThink_CSp	Intrusion	0	500	3000	0	3	1	1015	1	How <b>often</b> did you <b>think</b> about the <b>scene</b>?   <center><br><b>NEVER (1)    BRIEFLY (2)   OFTEN (3) </b>	-16	0	0	0	0	0	0
13	2023-04-13	09:57:14	10:47:53	10:47:53:624	35	1	TNT_Think_CSm	fixation	0	5	500	0	0	1	495	1	+	-16	0	0	0	0	0	0
13	2023-04-13	09:57:14	10:47:54	10:47:54:637	35	2	TNT_Think_CSm	Think	0	5	0	0	0	0	1000	1	THINK	-16	0	0	0	0	0	0
13	2023-04-13	09:57:14	10:47:59	10:47:59:654	35	3	TNT_Think_CSm	TNT_Think_CSm	0	5	0	0	0	0	5000	1	Cue6.jpg	-16	0	0	0	0	0	0
13	2023-04-13	09:57:14	10:48:00	10:48:00:849	35	4	TNT_Think_CSm	Intrusion	0	1500	3000	0	4	1	1177	1	How <b>often</b> did you <b>think</b> about the <b>scene</b>?   <center><br><b>NEVER (1)    BRIEFLY (2)   OFTEN (3) </b>	-16	0	0	0	0	0	0
13	2023-04-13	09:57:14	10:48:03	10:48:03:158	36	1	TNT_NoThink_CSm	fixation	0	5	1500	0	0	1	1495	1	+	-16	0	0	0	0	0	0
13	2023-04-13	09:57:14	10:48:04	10:48:04:171	36	2	TNT_NoThink_CSm	NoThink	0	5	0	0	0	0	1000	1	DON'T THINK	-16	0	0	0	0	0	0
13	2023-04-13	09:57:14	10:48:09	10:48:09:188	36	3	TNT_NoThink_CSm	TNT_NoThink_CSm	0	5	0	0	0	0	5000	4	Cue18.jpg	-16	0	0	0	0	0	0
13	2023-04-13	09:57:14	10:48:10	10:48:10:025	36	4	TNT_NoThink_CSm	Intrusion	0	1000	3000	0	3	1	819	1	How <b>often</b> did you <b>think</b> about the <b>scene</b>?   <center><br><b>NEVER (1)    BRIEFLY (2)   OFTEN (3) </b>	-16	0	0	0	0	0	0
13	2023-04-13	09:57:14	10:48:13	10:48:13:192	37	1	TNT_NoThink_CSp	fixation	0	5	1000	0	0	1	995	1	+	-8	0	0	0	0	0	0
13	2023-04-13	09:57:14	10:48:14	10:48:14:205	37	2	TNT_NoThink_CSp	NoThink	0	5	0	0	0	0	1000	1	DON'T THINK	-16	0	0	0	0	0	0
13	2023-04-13	09:57:14	10:48:19	10:48:19:222	37	3	TNT_NoThink_CSp	TNT_NoThink_CSp	0	5	0	0	0	0	5000	5	Cue5.jpg	-16	0	0	0	0	0	0
13	2023-04-13	09:57:14	10:48:20	10:48:20:881	37	4	TNT_NoThink_CSp	Intrusion	0	1000	3000	0	2	1	641	1	How <b>often</b> did you <b>think</b> about the <b>scene</b>?   <center><br><b>NEVER (1)    BRIEFLY (2)   OFTEN (3) </b>	-16	0	0	0	0	0	0
13	2023-04-13	09:57:14	10:48:23	10:48:23:726	38	1	TNT_NoThink_CSm	fixation	0	5	500	0	0	1	495	1	+	-8	0	0	0	0	0	0
13	2023-04-13	09:57:14	10:48:24	10:48:24:739	38	2	TNT_NoThink_CSm	NoThink	0	5	0	0	0	0	1000	1	DON'T THINK	-16	0	0	0	0	0	0
13	2023-04-13	09:57:14	10:48:29	10:48:29:756	38	3	TNT_NoThink_CSm	TNT_NoThink_CSm	0	5	0	0	0	0	5000	2	Cue3.jpg	-16	0	0	0	0	0	0
13	2023-04-13	09:57:14	10:48:30	10:48:30:465	38	4	TNT_NoThink_CSm	Intrusion	0	1500	3000	0	3	1	691	1	How <b>often</b> did you <b>think</b> about the <b>scene</b>?   <center><br><b>NEVER (1)    BRIEFLY (2)   OFTEN (3) </b>	-16	0	0	0	0	0	0
13	2023-04-13	09:57:14	10:48:33	10:48:33:260	39	1	TNT_Think_CSp	fixation	0	5	1500	0	0	1	1495	1	+	-16	0	0	0	0	0	0
13	2023-04-13	09:57:14	10:48:34	10:48:34:273	39	2	TNT_Think_CSp	Think	0	5	0	0	0	0	1000	1	THINK	-16	0	0	0	0	0	0
13	2023-04-13	09:57:14	10:48:40	10:48:40:289	39	3	TNT_Think_CSp	TNT_Think_CSp	0	5	0	0	0	0	5000	1	Cue30.jpg	-16	0	0	0	0	0	0
13	2023-04-13	09:57:14	10:48:40	10:48:40:137	39	4	TNT_Think_CSp	Intrusion	0	500	3000	0	4	1	829	1	How <b>often</b> did you <b>think</b> about the <b>scene</b>?   <center><br><b>NEVER (1)    BRIEFLY (2)   OFTEN (3) </b>	-16	0	0	0	0	0	0
13	2023-04-13	09:57:14	10:48:44	10:48:44:293	40	1	TNT_Think_CSm	fixation	0	5	1000	0	0	1	995	1	+	-8	0	0	0	0	0	0
13	2023-04-13	09:57:14	10:48:45	10:48:45:307	40	2	TNT_Think_CSm	Think	0	5	0	0	0	0	1000	1	THINK	-16	0	0	0	0	0	0
13	2023-04-13	09:57:14	10:48:50	10:48:50:324	40	3	TNT_Think_CSm	TNT_Think_CSm	0	5	0	0	0	0	5000	4	Cue2.jpg	-16	0	0	0	0	0	0
13	2023-04-13	09:57:14	10:48:51	10:48:51:361	40	4	TNT_Think_CSm	Intrusion	0	1000	3000	0	4	1	1019	1	How <b>often</b> did you <b>think</b> about the <b>scene</b>?   <center><br><b>NEVER (1)    BRIEFLY (2)   OFTEN (3) </b>	-16	0	0	0	0	0	0
13	2023-04-13	09:57:14	10:48:54	10:48:54:827	41	1	TNT_Think_CSp	fixation	0	5	1500	0	0	1	1495	1	+	-16	0	0	0	0	0	0
13	2023-04-13	09:57:14	10:48:55	10:48:55:841	41	2	TNT_Think_CSp	Think	0	5	0	0	0	0	1000	1	THINK	-16	0	0	0	0	0	0
13	2023-04-13	09:57:14	10:49:00	10:49:00:868	41	3	TNT_Think_CSp	TNT_Think_CSp	0	5	0	0	0	0	5000	6	Cue21.jpg	-16	0	0	0	0	0	0
13	2023-04-13	09:57:14	10:49:02	10:49:02:374	41	4	TNT_Think_CSp	Intrusion	0	1500	3000	0	0	0	1500	1	How <b>often</b> did you <b>think</b> about the <b>scene</b>?   <center><br><b>NEVER (1)    BRIEFLY (2)   OFTEN (3) </b>	-16	0	0	0	0	0	0
13	2023-04-13	09:57:14	10:49:04	10:49:04:870	42	1	TNT_Object_CSm	fixation	0	5	1000	0	0	1	995	1	+	-8	0	0	0	0	0	0
13	2023-04-13	09:57:14	10:49:05	10:49:05:891	42	2	TNT_Object_CSm	Passive	0	5	0	0	0	0	1000	1	VIEW	-8	0	0	0	0	0	0
13	2023-04-13	09:57:14	10:49:10	10:49:10:908	42	3	TNT_Object_CSm	TNT_Object_CSm	0	500	0	0	0	0	5000	4	Object5.jpg	-16	0	0	0	0	0	0
13	2023-04-13	09:57:14	10:49:11	10:49:11:907	43	1	TNT_NoThink_CSp	fixation	0	5	500	0	0	1	495	1	+	-8	0	0	0	0	0	0
13	2023-04-13	09:57:14	10:49:12	10:49:12:925	43	2	TNT_NoThink_CSp	NoThink	0	5	0	0	0	0	1000	1	DON'T THINK	-16	0	0	0	0	0	0
13	2023-04-13	09:57:14	10:49:17	10:49:17:942	43	3	TNT_NoThink_CSp	TNT_NoThink_CSp	0	5	0	0	0	0	5000	1	Cue33.jpg	-16	0	0	0	0	0	0
13	2023-04-13	09:57:14	10:49:18	10:49:18:561	43	4	TNT_NoThink_CSp	Intrusion	0	500	3000	0	2	1	601	1	How <b>often</b> did you <b>think</b> about the <b>scene</b>?   <center><br><b>NEVER (1)    BRIEFLY (2)   OFTEN (3) </b>	-16	0	0	0	0	0	0
13	2023-04-13	09:57:14	10:49:21	10:49:21:446	44	1	TNT_Think_CSm	fixation	0	5	500	0	0	1	495	1	+	-16	0	0	0	0	0	0
13	2023-04-13	09:57:14	10:49:22	10:49:22:459	44	2	TNT_Think_CSm	Think	0	5	0	0	0	0	1000	1	THINK	-16	0	0	0	0	0	0
13	2023-04-13	09:57:14	10:49:27	10:49:27:476	44	3	TNT_Think_CSm	TNT_Think_CSm	0	5	0	0	0	0	5000	6	Cue35.jpg	-16	0	0	0	0	0	0
13	2023-04-13	09:57:14	10:49:28	10:49:28:353	44	4	TNT_Think_CSm	Intrusion	0	1000	3000	0	4	1	859	1	How <b>often</b> did you <b>think</b> about the <b>scene</b>?   <center><br><b>NEVER (1)    BRIEFLY (2)   OFTEN (3) </b>	-16	0	0	0	0	0	0
13	2023-04-13	09:57:14	10:49:31	10:49:31:980	45	1	TNT_NoThink_CSp	fixation	0	5	1500	0	0	1	1495	1	+	-16	0	0	0	0	0	0
13	2023-04-13	09:57:14	10:49:32	10:49:32:993	45	2	TNT_NoThink_CSp	NoThink	0	5	0	0	0	0	1000	1	DON'T THINK	-16	0	0	0	0	0	0
13	2023-04-13	09:57:14	10:49:37	10:49:37:010	45	3	TNT_NoThink_CSp	TNT_NoThink_CSp	0	5	0	0	0	0	5000	2	Cue23.jpg	-16	0	0	0	0	0	0
13	2023-04-13	09:57:14	10:49:38	10:49:38:785	45	4	TNT_NoThink_CSp	Intrusion	0	1500	3000	0	2	1	757	1	How <b>often</b> did you <b>think</b> about the <b>scene</b>?   <center><br><b>NEVER (1)    BRIEFLY (2)   OFTEN (3) </b>	-16	0	0	0	0	0	0
13	2023-04-13	09:57:14	10:49:41	10:49:41:014	46	1	TNT_NoThink_CSp	fixation	0	5	1000	0	0	1	995	1	+	-8	0	0	0	0	0	0
13	2023-04-13	09:57:14	10:49:42	10:49:42:027	46	2	TNT_NoThink_CSp	NoThink	0	5	0	0	0	0	1000	1	DON'T THINK	-16	0	0	0	0	0	0
13	2023-04-13	09:57:14	10:49:47	10:49:47:044	46	3	TNT_NoThink_CSp	TNT_NoThink_CSp	0	5	0	0	0	0	5000	6	Cue36.jpg	-16	0	0	0	0	0	0
13	2023-04-13	09:57:14	10:49:48	10:49:48:913	46	4	TNT_NoThink_CSp	Intrusion	0	500	3000	0	3	1	851	1	How <b>often</b> did you <b>think</b> about the <b>scene</b>?   <center><br><b>NEVER (1)    BRIEFLY (2)   OFTEN (3) </b>	-16	0	0	0	0	0	0
13	2023-04-13	09:57:14	10:49:51	10:49:51:048	47	1	TNT_Think_CSp	fixation	0	5	1000	0	0	1	995	1	+	-16	0	0	0	0	0	0
13	2023-04-13	09:57:14	10:49:52	10:49:52:061	47	2	TNT_Think_CSp	Think	0	5	0	0	0	0	1000	1	THINK	-16	0	0	0	0	0	0
13	2023-04-13	09:57:14	10:49:57	10:49:57:078	47	3	TNT_Think_CSp	TNT_Think_CSp	0	5	0	0	0	0	5000	4	Cue34.jpg	-16	0	0	0	0	0	0
13	2023-04-13	09:57:14	10:49:58	10:49:58:817	47	4	TNT_Think_CSp	Intrusion	0	1500	3000	0	4	1	722	1	How <b>often</b> did you <b>think</b> about the <b>scene</b>?   <center><br><b>NEVER (1)    BRIEFLY (2)   OFTEN (3) </b>	-16	0	0	0	0	0	0
13	2023-04-13	09:57:14	10:50:02	10:50:02:582	48	1	TNT_Object_CSp	fixation	0	5	1500	0	0	1	1495	1	+	-16	0	0	0	0	0	0
13	2023-04-13	09:57:14	10:50:03	10:50:03:595	48	2	TNT_Object_CSp	Passive	0	5	0	0	0	0	1000	1	VIEW	-16	0	0	0	0	0	0
13	2023-04-13	09:57:14	10:50:08	10:50:08:611	48	3	TNT_Object_CSp	TNT_Object_CSp	0	1500	0	0	0	0	5000	1	Object7.jpg	-16	0	0	0	0	0	0
13	2023-04-13	09:57:14	10:50:10	10:50:10:611	49	1	TNT_NoThink_CSm	fixation	0	5	500	0	0	1	495	1	+	-8	0	0	0	0	0	0
13	2023-04-13	09:57:14	10:50:11	10:50:11:629	49	2	TNT_NoThink_CSm	NoThink	0	5	0	0	0	0	1000	1	DON'T THINK	-16	0	0	0	0	0	0
13	2023-04-13	09:57:14	10:50:16	10:50:16:645	49	3	TNT_NoThink_CSm	TNT_NoThink_CSm	0	5	0	0	0	0	5000	3	Cue1.jpg	-16	0	0	0	0	0	0
13	2023-04-13	09:57:14	10:50:17	10:50:17:281	49	4	TNT_NoThink_CSm	Intrusion	0	500	3000	0	3	1	618	1	How <b>often</b> did you <b>think</b> about the <b>scene</b>?   <center><br><b>NEVER (1)    BRIEFLY (2)   OFTEN (3) </b>	-16	0	0	0	0	0	0
13	2023-04-13	09:57:14	10:50:19	10:50:19:149	50	1	TNT_Think_CSm	fixation	0	5	500	0	0	1	495	1	+	-16	0	0	0	0	0	0
13	2023-04-13	09:57:14	10:50:20	10:50:20:162	50	2	TNT_Think_CSm	Think	0	5	0	0	0	0	1000	1	THINK	-16	0	0	0	0	0	0
13	2023-04-13	09:57:14	10:50:25	10:50:25:179	50	3	TNT_Think_CSm	TNT_Think_CSm	0	5	0	0	0	0	5000	3	Cue14.jpg	-16	0	0	0	0	0	0
13	2023-04-13	09:57:14	10:50:26	10:50:26:929	50	4	TNT_Think_CSm	Intrusion	0	1000	3000	0	4	1	732	1	How <b>often</b> did you <b>think</b> about the <b>scene</b>?   <center><br><b>NEVER (1)    BRIEFLY (2)   OFTEN (3) </b>	-16	0	0	0	0	0	0
13	2023-04-13	09:57:14	10:50:30	10:50:30:683	51	1	TNT_NoThink_CSm	fixation	0	5	1500	0	0	1	1495	1	+	-16	0	0	0	0	0	0
13	2023-04-13	09:57:14	10:50:31	10:50:31:696	51	2	TNT_NoThink_CSm	NoThink	0	5	0	0	0	0	1000	1	DON'T THINK	-16	0	0	0	0	0	0
13	2023-04-13	09:57:14	10:50:36	10:50:36:713	51	3	TNT_NoThink_CSm	TNT_NoThink_CSm	0	5	0	0	0	0	5000	1	Cue28.jpg	-16	0	0	0	0	0	0
13	2023-04-13	09:57:14	10:50:36	10:50:36:137	51	4	TNT_NoThink_CSm	Intrusion	0	1000	3000	0	2	1	406	1	How <b>often</b> did you <b>think</b> about the <b>scene</b>?   <center><br><b>NEVER (1)    BRIEFLY (2)   OFTEN (3) </b>	-16	0	0	0	0	0	0
13	2023-04-13	09:57:14	10:50:40	10:50:40:717	52	1	TNT_Object_CSm	fixation	0	5	1000	0	0	1	995	1	+	-16	0	0	0	0	0	0
13	2023-04-13	09:57:14	10:50:41	10:50:41:730	52	2	TNT_Object_CSm	Passive	0	5	0	0	0	0	1000	1	VIEW	-16	0	0	0	0	0	0
13	2023-04-13	09:57:14	10:50:46	10:50:46:747	52	3	TNT_Object_CSm	TNT_Object_CSm	0	1500	0	0	0	0	5000	2	Object2.jpg	-16	0	0	0	0	0	0
13	2023-04-13	09:57:14	10:50:48	10:50:48:246	53	1	TNT_NoThink_CSm	fixation	0	5	1000	0	0	1	995	1	+	-8	0	0	0	0	0	0
13	2023-04-13	09:57:14	10:50:49	10:50:49:264	53	2	TNT_NoThink_CSm	NoThink	0	5	0	0	0	0	1000	1	DON'T THINK	-16	0	0	0	0	0	0
13	2023-04-13	09:57:14	10:50:55	10:50:55:281	53	3	TNT_NoThink_CSm	TNT_NoThink_CSm	0	5	0	0	0	0	5000	6	Cue16.jpg	-16	0	0	0	0	0	0
13	2023-04-13	09:57:14	10:50:55	10:50:55:905	53	4	TNT_NoThink_CSm	Intrusion	0	1500	3000	0	3	1	606	1	How <b>often</b> did you <b>think</b> about the <b>scene</b>?   <center><br><b>NEVER (1)    BRIEFLY (2)   OFTEN (3) </b>	-16	0	0	0	0	0	0
13	2023-04-13	09:57:14	10:50:59	10:50:59:785	54	1	TNT_Think_CSp	fixation	0	5	1500	0	0	1	1495	1	+	-16	0	0	0	0	0	0
13	2023-04-13	09:57:14	10:51:00	10:51:00:798	54	2	TNT_Think_CSp	Think	0	5	0	0	0	0	1000	1	THINK	-16	0	0	0	0	0	0
13	2023-04-13	09:57:14	10:51:05	10:51:05:815	54	3	TNT_Think_CSp	TNT_Think_CSp	0	5	0	0	0	0	5000	3	Cue20.jpg	-16	0	0	0	0	0	0
13	2023-04-13	09:57:14	10:51:07	10:51:07:633	54	4	TNT_Think_CSp	Intrusion	0	500	3000	0	4	1	1800	1	How <b>often</b> did you <b>think</b> about the <b>scene</b>?   <center><br><b>NEVER (1)    BRIEFLY (2)   OFTEN (3) </b>	-16	0	0	0	0	0	0
13	2023-04-13	09:57:14	10:51:09	10:51:09:318	55	1	TNT_Think_CSm	fixation	0	5	500	0	0	1	495	1	+	-16	0	0	0	0	0	0
13	2023-04-13	09:57:14	10:51:10	10:51:10:332	55	2	TNT_Think_CSm	Think	0	5	0	0	0	0	1000	1	THINK	-16	0	0	0	0	0	0
13	2023-04-13	09:57:14	10:51:15	10:51:15:348	55	3	TNT_Think_CSm	TNT_Think_CSm	0	5	0	0	0	0	5000	5	Cue7.jpg	-16	0	0	0	0	0	0
13	2023-04-13	09:57:14	10:51:15	10:51:15:065	55	4	TNT_Think_CSm	Intrusion	0	1000	3000	0	4	1	698	1	How <b>often</b> did you <b>think</b> about the <b>scene</b>?   <center><br><b>NEVER (1)    BRIEFLY (2)   OFTEN (3) </b>	-16	0	0	0	0	0	0
13	2023-04-13	09:57:14	10:51:19	10:51:19:852	56	1	TNT_Object_CSp	fixation	0	5	1500	0	0	1	1495	1	+	-16	0	0	0	0	0	0
13	2023-04-13	09:57:14	10:51:20	10:51:20:865	56	2	TNT_Object_CSp	Passive	0	5	0	0	0	0	1000	1	VIEW	-16	0	0	0	0	0	0
13	2023-04-13	09:57:14	10:51:25	10:51:25:883	56	3	TNT_Object_CSp	TNT_Object_CSp	0	500	0	0	0	0	5000	4	Object1.jpg	-16	0	0	0	0	0	0
13	2023-04-13	09:57:14	10:51:26	10:51:26:882	57	1	TNT_NoThink_CSp	fixation	0	5	500	0	0	1	495	1	+	-9	0	0	0	0	0	0
13	2023-04-13	09:57:14	10:51:27	10:51:27:900	57	2	TNT_NoThink_CSp	NoThink	0	5	0	0	0	0	1000	1	DON'T THINK	-16	0	0	0	0	0	0
13	2023-04-13	09:57:14	10:51:32	10:51:32:916	57	3	TNT_NoThink_CSp	TNT_NoThink_CSp	0	5	0	0	0	0	5000	3	Cue31.jpg	-16	0	0	0	0	0	0
13	2023-04-13	09:57:14	10:51:33	10:51:33:425	57	4	TNT_NoThink_CSp	Intrusion	0	1500	3000	0	3	1	491	1	How <b>often</b> did you <b>think</b> about the <b>scene</b>?   <center><br><b>NEVER (1)    BRIEFLY (2)   OFTEN (3) </b>	-16	0	0	0	0	0	0
13	2023-04-13	09:57:14	10:51:36	10:51:36:920	58	1	TNT_Think_CSp	fixation	0	5	1000	0	0	1	995	1	+	-16	0	0	0	0	0	0
13	2023-04-13	09:57:14	10:51:37	10:51:37:933	58	2	TNT_Think_CSp	Think	0	5	0	0	0	0	1000	1	THINK	-16	0	0	0	0	0	0
13	2023-04-13	09:57:14	10:51:42	10:51:42:950	58	3	TNT_Think_CSp	TNT_Think_CSp	0	5	0	0	0	0	5000	2	Cue24.jpg	-16	0	0	0	0	0	0
13	2023-04-13	09:57:14	10:51:43	10:51:43:665	58	4	TNT_Think_CSp	Intrusion	0	500	3000	0	4	1	697	1	How <b>often</b> did you <b>think</b> about the <b>scene</b>?   <center><br><b>NEVER (1)    BRIEFLY (2)   OFTEN (3) </b>	-16	0	0	0	0	0	0
13	2023-04-13	09:57:14	10:51:47	10:51:47:454	59	1	TNT_Object_CSp	fixation	0	5	1500	0	0	1	1495	1	+	-16	0	0	0	0	0	0
13	2023-04-13	09:57:14	10:51:48	10:51:48:467	59	2	TNT_Object_CSp	Passive	0	5	0	0	0	0	1000	1	VIEW	-16	0	0	0	0	0	0
13	2023-04-13	09:57:14	10:51:53	10:51:53:484	59	3	TNT_Object_CSp	TNT_Object_CSp	0	1500	0	0	0	0	5000	3	Object6.jpg	-16	0	0	0	0	0	0
13	2023-04-13	09:57:14	10:51:55	10:51:55:483	60	1	TNT_Object_CSp	fixation	0	5	500	0	0	1	495	1	+	-5	0	0	0	0	0	0
13	2023-04-13	09:57:14	10:51:56	10:51:56:501	60	2	TNT_Object_CSp	Passive	0	5	0	0	0	0	1000	1	VIEW	-16	0	0	0	0	0	0
13	2023-04-13	09:57:14	10:52:01	10:52:01:518	60	3	TNT_Object_CSp	TNT_Object_CSp	0	1000	0	0	0	0	5000	2	Object8.jpg	-16	0	0	0	0	0	0
13	2023-04-13	09:57:14	10:52:03	10:52:03:518	61	1	TNT_Think_CSp	fixation	0	5	1000	0	0	1	995	1	+	-8	0	0	0	0	0	0
13	2023-04-13	09:57:14	10:52:04	10:52:04:535	61	2	TNT_Think_CSp	Think	0	5	0	0	0	0	1000	1	THINK	-16	0	0	0	0	0	0
13	2023-04-13	09:57:14	10:52:09	10:52:09:552	61	3	TNT_Think_CSp	TNT_Think_CSp	0	5	0	0	0	0	5000	5	Cue22.jpg	-16	0	0	0	0	0	0
13	2023-04-13	09:57:14	10:52:10	10:52:10:673	61	4	TNT_Think_CSp	Intrusion	0	500	3000	0	4	1	1103	1	How <b>often</b> did you <b>think</b> about the <b>scene</b>?   <center><br><b>NEVER (1)    BRIEFLY (2)   OFTEN (3) </b>	-16	0	0	0	0	0	0
13	2023-04-13	09:57:14	10:52:13	10:52:13:055	62	1	TNT_Think_CSm	fixation	0	5	1500	0	0	1	1495	1	+	-16	0	0	0	0	0	0
13	2023-04-13	09:57:14	10:52:14	10:52:14:069	62	2	TNT_Think_CSm	Think	0	5	0	0	0	0	1000	1	THINK	-16	0	0	0	0	0	0
13	2023-04-13	09:57:14	10:52:19	10:52:19:085	62	3	TNT_Think_CSm	TNT_Think_CSm	0	5	0	0	0	0	5000	2	Cue15.jpg	-16	0	0	0	0	0	0
13	2023-04-13	09:57:14	10:52:20	10:52:20:833	62	4	TNT_Think_CSm	Intrusion	0	1000	3000	0	4	1	729	1	How <b>often</b> did you <b>think</b> about the <b>scene</b>?   <center><br><b>NEVER (1)    BRIEFLY (2)   OFTEN (3) </b>	-16	0	0	0	0	0	0
13	2023-04-13	09:57:14	10:52:23	10:52:23:089	63	1	TNT_Object_CSm	fixation	0	5	1000	0	0	1	995	1	+	-8	0	0	0	0	0	0
13	2023-04-13	09:57:14	10:52:24	10:52:24:103	63	2	TNT_Object_CSm	Passive	0	5	0	0	0	0	1000	1	VIEW	-16	0	0	0	0	0	0
13	2023-04-13	09:57:14	10:52:29	10:52:29:119	63	3	TNT_Object_CSm	TNT_Object_CSm	0	500	0	0	0	0	5000	1	Object3.jpg	-16	0	0	0	0	0	0
13	2023-04-13	09:57:14	10:52:30	10:52:30:119	64	1	TNT_NoThink_CSm	fixation	0	5	500	0	0	1	495	1	+	-8	0	0	0	0	0	0
13	2023-04-13	09:57:14	10:52:31	10:52:31:137	64	2	TNT_NoThink_CSm	NoThink	0	5	0	0	0	0	1000	1	DON'T THINK	-16	0	0	0	0	0	0
13	2023-04-13	09:57:14	10:52:36	10:52:36:153	64	3	TNT_NoThink_CSm	TNT_NoThink_CSm	0	5	0	0	0	0	5000	5	Cue26.jpg	-16	0	0	0	0	0	0
13	2023-04-13	09:57:14	10:52:37	10:52:37:729	64	4	TNT_NoThink_CSm	Intrusion	0	1500	3000	0	2	1	559	1	How <b>often</b> did you <b>think</b> about the <b>scene</b>?   <center><br><b>NEVER (1)    BRIEFLY (2)   OFTEN (3) </b>	-16	0	0	0	0	0	0
13	2023-04-13	09:57:14	10:52:40	10:52:40:657	65	1	TNT_Object_CSm	fixation	0	5	500	0	0	1	495	1	+	-16	0	0	0	0	0	0
13	2023-04-13	09:57:14	10:52:41	10:52:41:670	65	2	TNT_Object_CSm	Passive	0	5	0	0	0	0	1000	1	VIEW	-16	0	0	0	0	0	0
13	2023-04-13	09:57:14	10:52:46	10:52:46:687	65	3	TNT_Object_CSm	TNT_Object_CSm	0	1500	0	0	0	0	5000	3	Object4.jpg	-16	0	0	0	0	0	0
13	2023-04-13	09:57:14	10:52:49	10:52:49:687	66	1	Expectancy_rating	fixation	0	5	1500	0	0	1	1495	1	+	-8	0	0	0	0	0	0
13	2023-04-13	09:57:14	10:53:13	10:53:13:603	66	2	Expectancy_rating	expectancy_rating	0	1000	0	0	70	0	23865	1	When you saw the <b>object</b>,   to what <b>degree (0-100%)</b> did you expect the <b>unpleasant sound to occur</b>?	-16	13	Cue13.jpg	-16	0	0	0
13	2023-04-13	09:57:14	10:53:15	10:53:15:590	67	1	Expectancy_rating	fixation	0	5	1000	0	0	1	995	1	+	-8	0	0	0	0	0	0
13	2023-04-13	09:57:14	10:53:23	10:53:23:282	67	2	Expectancy_rating	expectancy_rating	0	1500	0	0	30	0	7643	1	When you saw the <b>object</b>,   to what <b>degree (0-100%)</b> did you expect the <b>unpleasant sound to occur</b>?	-16	21	Cue21.jpg	-16	0	0	0
13	2023-04-13	09:57:14	10:53:25	10:53:25:771	68	1	Expectancy_rating	fixation	0	5	1000	0	0	1	995	1	+	-8	0	0	0	0	0	0
13	2023-04-13	09:57:14	10:53:36	10:53:36:621	68	2	Expectancy_rating	expectancy_rating	0	500	0	0	40	0	10795	1	When you saw the <b>object</b>,   to what <b>degree (0-100%)</b> did you expect the <b>unpleasant sound to occur</b>?	-16	5	Cue5.jpg	-16	0	0	0
13	2023-04-13	09:57:14	10:53:38	10:53:38:608	69	1	Expectancy_rating	fixation	0	5	1500	0	0	1	1495	1	+	-8	0	0	0	0	0	0
13	2023-04-13	09:57:14	10:53:51	10:53:51:205	69	2	Expectancy_rating	expectancy_rating	0	1500	0	0	60	0	13545	1	When you saw the <b>object</b>,   to what <b>degree (0-100%)</b> did you expect the <b>unpleasant sound to occur</b>?	-16	31	Cue31.jpg	-16	0	0	0
13	2023-04-13	09:57:14	10:53:53	10:53:53:192	70	1	Expectancy_rating	fixation	0	5	500	0	0	1	495	1	+	-8	0	0	0	0	0	0
13	2023-04-13	09:57:14	10:54:00	10:54:00:023	70	2	Expectancy_rating	expectancy_rating	0	1000	0	0	20	0	6777	1	When you saw the <b>object</b>,   to what <b>degree (0-100%)</b> did you expect the <b>unpleasant sound to occur</b>?	-16	26	Cue26.jpg	-16	0	0	0
13	2023-04-13	09:57:14	10:54:02	10:54:02:09	71	1	Expectancy_rating	fixation	0	5	1000	0	0	1	995	1	+	-7	0	0	0	0	0	0
13	2023-04-13	09:57:14	10:54:09	10:54:09:790	71	2	Expectancy_rating	expectancy_rating	0	500	0	0	0	0	6728	1	When you saw the <b>object</b>,   to what <b>degree (0-100%)</b> did you expect the <b>unpleasant sound to occur</b>?	-16	47	Object7.jpg	-16	0	0	0
13	2023-04-13	09:57:14	10:54:11	10:54:11:776	72	1	Expectancy_rating	fixation	0	5	1500	0	0	1	1495	1	+	-8	0	0	0	0	0	0
13	2023-04-13	09:57:14	10:54:16	10:54:16:417	72	2	Expectancy_rating	expectancy_rating	0	1500	0	0	60	0	4592	1	When you saw the <b>object</b>,   to what <b>degree (0-100%)</b> did you expect the <b>unpleasant sound to occur</b>?	-16	36	Cue36.jpg	-16	0	0	0
13	2023-04-13	09:57:14	10:54:18	10:54:18:406	73	1	Expectancy_rating	fixation	0	5	500	0	0	1	495	1	+	-8	0	0	0	0	0	0
13	2023-04-13	09:57:14	10:54:28	10:54:28:525	73	2	Expectancy_rating	expectancy_rating	0	1000	0	0	70	0	10087	1	When you saw the <b>object</b>,   to what <b>degree (0-100%)</b> did you expect the <b>unpleasant sound to occur</b>?	-6	19	Cue19.jpg	-6	0	0	0
13	2023-04-13	09:57:14	10:54:29	10:54:29:028	74	1	Expectancy_rating	fixation	0	5	500	0	0	1	495	1	+	-8	0	0	0	0	0	0
13	2023-04-13	09:57:14	10:54:39	10:54:39:075	74	2	Expectancy_rating	expectancy_rating	0	500	0	0	60	0	10022	1	When you saw the <b>object</b>,   to what <b>degree (0-100%)</b> did you expect the <b>unpleasant sound to occur</b>?	-16	4	Cue4.jpg	-16	0	0	0
13	2023-04-13	09:57:14	10:54:41	10:54:41:579	75	1	Expectancy_rating	fixation	0	5	1000	0	0	1	995	1	+	-8	0	0	0	0	0	0
13	2023-04-13	09:57:14	10:54:49	10:54:49:059	75	2	Expectancy_rating	expectancy_rating	0	500	0	0	20	0	8455	1	When you saw the <b>object</b>,   to what <b>degree (0-100%)</b> did you expect the <b>unpleasant sound to occur</b>?	-16	28	Cue28.jpg	-16	0	0	0
13	2023-04-13	09:57:14	10:54:51	10:54:51:062	76	1	Expectancy_rating	fixation	0	5	1500	0	0	1	1495	1	+	-8	0	0	0	0	0	0
13	2023-04-13	09:57:14	10:54:58	10:54:58:443	76	2	Expectancy_rating	expectancy_rating	0	1500	0	0	69	0	6355	1	When you saw the <b>object</b>,   to what <b>degree (0-100%)</b> did you expect the <b>unpleasant sound to occur</b>?	-16	6	Cue6.jpg	-16	0	0	0
13	2023-04-13	09:57:14	10:55:01	10:55:01:446	77	1	Expectancy_rating	fixation	0	5	1500	0	0	1	1495	1	+	-8	0	0	0	0	0	0
13	2023-04-13	09:57:14	10:55:07	10:55:07:693	77	2	Expectancy_rating	expectancy_rating	0	1000	0	0	70	0	6195	1	When you saw the <b>object</b>,   to what <b>degree (0-100%)</b> did you expect the <b>unpleasant sound to occur</b>?	-16	10	Cue10.jpg	-16	0	0	0
13	2023-04-13	09:57:14	10:55:08	10:55:08:180	78	1	Expectancy_rating	fixation	0	5	500	0	0	1	495	1	+	-7	0	0	0	0	0	0
13	2023-04-13	09:57:14	10:55:15	10:55:15:324	78	2	Expectancy_rating	expectancy_rating	0	1000	0	0	70	0	6093	1	When you saw the <b>object</b>,   to what <b>degree (0-100%)</b> did you expect the <b>unpleasant sound to occur</b>?	-16	37	Cue37.jpg	-16	0	0	0
13	2023-04-13	09:57:14	10:55:17	10:55:17:312	79	1	Expectancy_rating	fixation	0	5	1000	0	0	1	995	1	+	-8	0	0	0	0	0	0
13	2023-04-13	09:57:14	10:55:21	10:55:21:874	79	2	Expectancy_rating	expectancy_rating	0	500	0	0	80	0	4512	1	When you saw the <b>object</b>,   to what <b>degree (0-100%)</b> did you expect the <b>unpleasant sound to occur</b>?	-16	7	Cue7.jpg	-16	0	0	0
13	2023-04-13	09:57:14	10:55:22	10:55:22:862	80	1	Expectancy_rating	fixation	0	5	500	0	0	1	495	1	+	-8	0	0	0	0	0	0
13	2023-04-13	09:57:14	10:55:26	10:55:26:628	80	2	Expectancy_rating	expectancy_rating	0	1500	0	0	0	0	3737	1	When you saw the <b>object</b>,   to what <b>degree (0-100%)</b> did you expect the <b>unpleasant sound to occur</b>?	-16	44	Object4.jpg	-16	0	0	0
13	2023-04-13	09:57:14	10:55:29	10:55:29:631	81	1	Expectancy_rating	fixation	0	5	1500	0	0	1	1495	1	+	-8	0	0	0	0	0	0
13	2023-04-13	09:57:14	10:55:34	10:55:34:011	81	2	Expectancy_rating	expectancy_rating	0	1500	0	0	69	0	5354	1	When you saw the <b>object</b>,   to what <b>degree (0-100%)</b> did you expect the <b>unpleasant sound to occur</b>?	-16	38	Cue38.jpg	-16	0	0	0
13	2023-04-13	09:57:14	10:55:37	10:55:37:514	82	1	Expectancy_rating	fixation	0	5	1000	0	0	1	995	1	+	-8	0	0	0	0	0	0
13	2023-04-13	09:57:14	10:55:43	10:55:43:345	82	2	Expectancy_rating	expectancy_rating	0	500	0	0	31	0	5782	1	When you saw the <b>object</b>,   to what <b>degree (0-100%)</b> did you expect the <b>unpleasant sound to occur</b>?	-16	33	Cue33.jpg	-16	0	0	0
13	2023-04-13	09:57:14	10:55:45	10:55:45:331	83	1	Expectancy_rating	fixation	0	5	1500	0	0	1	1495	1	+	-7	0	0	0	0	0	0
13	2023-04-13	09:57:14	10:55:49	10:55:49:562	83	2	Expectancy_rating	expectancy_rating	0	1000	0	0	0	0	4181	1	When you saw the <b>object</b>,   to what <b>degree (0-100%)</b> did you expect the <b>unpleasant sound to occur</b>?	-16	43	Object3.jpg	-16	0	0	0
13	2023-04-13	09:57:14	10:55:50	10:55:50:048	84	1	Expectancy_rating	fixation	0	5	500	0	0	1	495	1	+	-8	0	0	0	0	0	0
13	2023-04-13	09:57:14	10:56:00	10:56:00:997	84	2	Expectancy_rating	expectancy_rating	0	1000	0	0	19	0	9920	1	When you saw the <b>object</b>,   to what <b>degree (0-100%)</b> did you expect the <b>unpleasant sound to occur</b>?	-16	40	Cue40.jpg	-16	0	0	0
13	2023-04-13	09:57:14	10:56:02	10:56:02:999	85	1	Expectancy_rating	fixation	0	5	1000	0	0	1	995	1	+	-8	0	0	0	0	0	0
13	2023-04-13	09:57:14	10:56:08	10:56:08:580	85	2	Expectancy_rating	expectancy_rating	0	1500	0	0	60	0	5529	1	When you saw the <b>object</b>,   to what <b>degree (0-100%)</b> did you expect the <b>unpleasant sound to occur</b>?	-16	29	Cue29.jpg	-16	0	0	0
13	2023-04-13	09:57:14	10:56:10	10:56:10:566	86	1	Expectancy_rating	fixation	0	5	500	0	0	1	495	1	+	-8	0	0	0	0	0	0
13	2023-04-13	09:57:14	10:56:18	10:56:18:598	86	2	Expectancy_rating	expectancy_rating	0	500	0	0	80	0	8003	1	When you saw the <b>object</b>,   to what <b>degree (0-100%)</b> did you expect the <b>unpleasant sound to occur</b>?	-16	15	Cue15.jpg	-16	0	0	0
13	2023-04-13	09:57:14	10:56:20	10:56:20:600	87	1	Expectancy_rating	fixation	0	5	1500	0	0	1	1495	1	+	-8	0	0	0	0	0	0
13	2023-04-13	09:57:14	10:56:29	10:56:29:681	87	2	Expectancy_rating	expectancy_rating	0	1500	0	0	40	0	9056	1	When you saw the <b>object</b>,   to what <b>degree (0-100%)</b> did you expect the <b>unpleasant sound to occur</b>?	-16	22	Cue22.jpg	-16	0	0	0
13	2023-04-13	09:57:14	10:56:31	10:56:31:184	88	1	Expectancy_rating	fixation	0	5	1000	0	0	1	995	1	+	-8	0	0	0	0	0	0
13	2023-04-13	09:57:14	10:56:48	10:56:48:532	88	2	Expectancy_rating	expectancy_rating	0	1000	0	0	30	0	16296	1	When you saw the <b>object</b>,   to what <b>degree (0-100%)</b> did you expect the <b>unpleasant sound to occur</b>?	-16	3	Cue3.jpg	-16	0	0	0
13	2023-04-13	09:57:14	10:56:49	10:56:49:019	89	1	Expectancy_rating	fixation	0	5	500	0	0	1	495	1	+	-8	0	0	0	0	0	0
13	2023-04-13	09:57:14	10:56:55	10:56:55:167	89	2	Expectancy_rating	expectancy_rating	0	500	0	0	0	0	6118	1	When you saw the <b>object</b>,   to what <b>degree (0-100%)</b> did you expect the <b>unpleasant sound to occur</b>?	-16	45	Object5.jpg	-16	0	0	0
13	2023-04-13	09:57:14	10:56:57	10:56:57:169	90	1	Expectancy_rating	fixation	0	5	1500	0	0	1	1495	1	+	-7	0	0	0	0	0	0
13	2023-04-13	09:57:14	10:57:04	10:57:04:917	90	2	Expectancy_rating	expectancy_rating	0	1000	0	0	20	0	6720	1	When you saw the <b>object</b>,   to what <b>degree (0-100%)</b> did you expect the <b>unpleasant sound to occur</b>?	-16	12	Cue12.jpg	-16	0	0	0
13	2023-04-13	09:57:14	10:57:06	10:57:06:920	91	1	Expectancy_rating	fixation	0	5	1000	0	0	1	995	1	+	-8	0	0	0	0	0	0
13	2023-04-13	09:57:14	10:57:19	10:57:19:784	91	2	Expectancy_rating	expectancy_rating	0	500	0	0	10	0	12809	1	When you saw the <b>object</b>,   to what <b>degree (0-100%)</b> did you expect the <b>unpleasant sound to occur</b>?	-16	1	Cue1.jpg	-16	0	0	0
13	2023-04-13	09:57:14	10:57:21	10:57:21:771	92	1	Expectancy_rating	fixation	0	5	1500	0	0	1	1495	1	+	-8	0	0	0	0	0	0
13	2023-04-13	09:57:14	10:57:24	10:57:24:168	92	2	Expectancy_rating	expectancy_rating	0	1500	0	0	0	0	3342	1	When you saw the <b>object</b>,   to what <b>degree (0-100%)</b> did you expect the <b>unpleasant sound to occur</b>?	-16	41	Object1.jpg	-16	0	0	0
13	2023-04-13	09:57:14	10:57:27	10:57:27:654	93	1	Expectancy_rating	fixation	0	5	1000	0	0	1	995	1	+	-8	0	0	0	0	0	0
13	2023-04-13	09:57:14	10:57:32	10:57:32:102	93	2	Expectancy_rating	expectancy_rating	0	500	0	0	60	0	5419	1	When you saw the <b>object</b>,   to what <b>degree (0-100%)</b> did you expect the <b>unpleasant sound to occur</b>?	-16	18	Cue18.jpg	-16	0	0	0
13	2023-04-13	09:57:14	10:57:33	10:57:33:105	94	1	Expectancy_rating	fixation	0	5	500	0	0	1	495	1	+	-8	0	0	0	0	0	0
13	2023-04-13	09:57:14	10:57:43	10:57:43:702	94	2	Expectancy_rating	expectancy_rating	0	1500	0	0	70	0	9568	1	When you saw the <b>object</b>,   to what <b>degree (0-100%)</b> did you expect the <b>unpleasant sound to occur</b>?	-16	2	Cue2.jpg	-16	0	0	0
13	2023-04-13	09:57:14	10:57:46	10:57:46:705	95	1	Expectancy_rating	fixation	0	5	1500	0	0	1	1495	1	+	-7	0	0	0	0	0	0
13	2023-04-13	09:57:14	10:58:04	10:58:04:353	95	2	Expectancy_rating	expectancy_rating	0	1000	0	0	30	0	17600	1	When you saw the <b>object</b>,   to what <b>degree (0-100%)</b> did you expect the <b>unpleasant sound to occur</b>?	-16	16	Cue16.jpg	-16	0	0	0
13	2023-04-13	09:57:14	10:58:06	10:58:06:340	96	1	Expectancy_rating	fixation	0	5	1000	0	0	1	995	1	+	-8	0	0	0	0	0	0
13	2023-04-13	09:57:14	10:58:13	10:58:13:921	96	2	Expectancy_rating	expectancy_rating	0	1500	0	0	50	0	7557	1	When you saw the <b>object</b>,   to what <b>degree (0-100%)</b> did you expect the <b>unpleasant sound to occur</b>?	-16	25	Cue25.jpg	-16	0	0	0
13	2023-04-13	09:57:14	10:58:15	10:58:15:924	97	1	Expectancy_rating	fixation	0	5	500	0	0	1	495	1	+	-8	0	0	0	0	0	0
13	2023-04-13	09:57:14	10:58:26	10:58:26:704	97	2	Expectancy_rating	expectancy_rating	0	1000	0	0	90	0	10725	1	When you saw the <b>object</b>,   to what <b>degree (0-100%)</b> did you expect the <b>unpleasant sound to occur</b>?	-16	30	Cue30.jpg	-16	0	0	0
13	2023-04-13	09:57:14	10:58:28	10:58:28:692	98	1	Expectancy_rating	fixation	0	5	1000	0	0	1	995	1	+	-8	0	0	0	0	0	0
13	2023-04-13	09:57:14	10:58:38	10:58:38:839	98	2	Expectancy_rating	expectancy_rating	0	500	0	0	30	0	10118	1	When you saw the <b>object</b>,   to what <b>degree (0-100%)</b> did you expect the <b>unpleasant sound to occur</b>?	-16	8	Cue8.jpg	-16	0	0	0
13	2023-04-13	09:57:14	10:58:39	10:58:39:842	99	1	Expectancy_rating	fixation	0	5	500	0	0	1	495	1	+	-8	0	0	0	0	0	0
13	2023-04-13	09:57:14	10:58:44	10:58:44:406	99	2	Expectancy_rating	expectancy_rating	0	500	0	0	0	0	4511	1	When you saw the <b>object</b>,   to what <b>degree (0-100%)</b> did you expect the <b>unpleasant sound to occur</b>?	-16	42	Object2.jpg	-16	0	0	0
13	2023-04-13	09:57:14	10:58:46	10:58:46:392	100	1	Expectancy_rating	fixation	0	5	1500	0	0	1	1495	1	+	-8	0	0	0	0	0	0
13	2023-04-13	09:57:14	10:58:54	10:58:54:039	100	2	Expectancy_rating	expectancy_rating	0	1500	0	0	29	0	8625	1	When you saw the <b>object</b>,   to what <b>degree (0-100%)</b> did you expect the <b>unpleasant sound to occur</b>?	-16	20	Cue20.jpg	-16	0	0	0
13	2023-04-13	09:57:14	10:58:56	10:58:56:042	101	1	Expectancy_rating	fixation	0	5	500	0	0	1	495	1	+	-7	0	0	0	0	0	0
13	2023-04-13	09:57:14	10:59:02	10:59:02:824	101	2	Expectancy_rating	expectancy_rating	0	1000	0	0	10	0	5758	1	When you saw the <b>object</b>,   to what <b>degree (0-100%)</b> did you expect the <b>unpleasant sound to occur</b>?	-16	11	Cue11.jpg	-16	0	0	0
13	2023-04-13	09:57:14	10:59:04	10:59:04:826	102	1	Expectancy_rating	fixation	0	5	1000	0	0	1	995	1	+	-8	0	0	0	0	0	0
13	2023-04-13	09:57:14	10:59:14	10:59:14:174	102	2	Expectancy_rating	expectancy_rating	0	1000	0	0	10	0	10296	1	When you saw the <b>object</b>,   to what <b>degree (0-100%)</b> did you expect the <b>unpleasant sound to occur</b>?	-16	9	Cue9.jpg	-16	0	0	0
13	2023-04-13	09:57:14	10:59:17	10:59:17:660	103	1	Expectancy_rating	fixation	0	5	1500	0	0	1	1495	1	+	-8	0	0	0	0	0	0
13	2023-04-13	09:57:14	10:59:22	10:59:22:641	103	2	Expectancy_rating	expectancy_rating	0	500	0	0	0	0	4932	1	When you saw the <b>object</b>,   to what <b>degree (0-100%)</b> did you expect the <b>unpleasant sound to occur</b>?	-16	46	Object6.jpg	-16	0	0	0
13	2023-04-13	09:57:14	10:59:24	10:59:24:628	104	1	Expectancy_rating	fixation	0	5	1500	0	0	1	1495	1	+	-8	0	0	0	0	0	0
13	2023-04-13	09:57:14	10:59:33	10:59:33:292	104	2	Expectancy_rating	expectancy_rating	0	1500	0	0	0	0	8637	1	When you saw the <b>object</b>,   to what <b>degree (0-100%)</b> did you expect the <b>unpleasant sound to occur</b>?	-16	24	Cue24.jpg	-16	0	0	0
13	2023-04-13	09:57:14	10:59:35	10:59:35:796	105	1	Expectancy_rating	fixation	0	5	1000	0	0	1	995	1	+	-8	0	0	0	0	0	0
13	2023-04-13	09:57:14	10:59:44	10:59:44:326	105	2	Expectancy_rating	expectancy_rating	0	1000	0	0	0	0	8478	1	When you saw the <b>object</b>,   to what <b>degree (0-100%)</b> did you expect the <b>unpleasant sound to occur</b>?	-16	48	Object8.jpg	-16	0	0	0
13	2023-04-13	09:57:14	10:59:45	10:59:45:813	106	1	Expectancy_rating	fixation	0	5	500	0	0	1	495	1	+	-8	0	0	0	0	0	0
13	2023-04-13	09:57:14	10:59:53	10:59:53:176	106	2	Expectancy_rating	expectancy_rating	0	500	0	0	60	0	8340	1	When you saw the <b>object</b>,   to what <b>degree (0-100%)</b> did you expect the <b>unpleasant sound to occur</b>?	-16	17	Cue17.jpg	-16	0	0	0
13	2023-04-13	09:57:14	10:59:55	10:59:55:179	107	1	Expectancy_rating	fixation	0	5	1500	0	0	1	1495	1	+	-8	0	0	0	0	0	0
13	2023-04-13	09:57:14	11:00:07	11:00:07:737	107	2	Expectancy_rating	expectancy_rating	0	1500	0	0	90	0	11511	1	When you saw the <b>object</b>,   to what <b>degree (0-100%)</b> did you expect the <b>unpleasant sound to occur</b>?	-16	27	Cue27.jpg	-16	0	0	0
13	2023-04-13	09:57:14	11:00:09	11:00:09:227	108	1	Expectancy_rating	fixation	0	5	1000	0	0	1	995	1	+	-8	0	0	0	0	0	0
13	2023-04-13	09:57:14	11:00:30	11:00:30:445	108	2	Expectancy_rating	expectancy_rating	0	1000	0	0	40	0	20163	1	When you saw the <b>object</b>,   to what <b>degree (0-100%)</b> did you expect the <b>unpleasant sound to occur</b>?	-16	39	Cue39.jpg	-16	0	0	0
13	2023-04-13	09:57:14	11:00:31	11:00:31:931	109	1	Expectancy_rating	fixation	0	5	500	0	0	1	495	1	+	-7	0	0	0	0	0	0
13	2023-04-13	09:57:14	11:00:42	11:00:42:513	109	2	Expectancy_rating	expectancy_rating	0	1500	0	0	20	0	10558	1	When you saw the <b>object</b>,   to what <b>degree (0-100%)</b> did you expect the <b>unpleasant sound to occur</b>?	-16	34	Cue34.jpg	-16	0	0	0
13	2023-04-13	09:57:14	11:00:45	11:00:45:516	110	1	Expectancy_rating	fixation	0	5	1500	0	0	1	1495	1	+	-8	0	0	0	0	0	0
13	2023-04-13	09:57:14	11:01:01	11:01:01:780	110	2	Expectancy_rating	expectancy_rating	0	500	0	0	80	0	16214	1	When you saw the <b>object</b>,   to what <b>degree (0-100%)</b> did you expect the <b>unpleasant sound to occur</b>?	-16	14	Cue14.jpg	-16	0	0	0
13	2023-04-13	09:57:14	11:01:02	11:01:02:767	111	1	Expectancy_rating	fixation	0	5	500	0	0	1	495	1	+	-8	0	0	0	0	0	0
13	2023-04-13	09:57:14	11:01:14	11:01:14:897	111	2	Expectancy_rating	expectancy_rating	0	500	0	0	20	0	12107	1	When you saw the <b>object</b>,   to what <b>degree (0-100%)</b> did you expect the <b>unpleasant sound to occur</b>?	-16	23	Cue23.jpg	-16	0	0	0
13	2023-04-13	09:57:14	11:01:16	11:01:16:400	112	1	Expectancy_rating	fixation	0	5	1000	0	0	1	995	1	+	-7	0	0	0	0	0	0
13	2023-04-13	09:57:14	11:01:25	11:01:25:999	112	2	Expectancy_rating	expectancy_rating	0	1500	0	0	79	0	9569	1	When you saw the <b>object</b>,   to what <b>degree (0-100%)</b> did you expect the <b>unpleasant sound to occur</b>?	-16	32	Cue32.jpg	-16	0	0	0
13	2023-04-13	09:57:14	11:01:28	11:01:28:02	113	1	Expectancy_rating	fixation	0	5	1500	0	0	1	1495	1	+	-8	0	0	0	0	0	0
13	2023-04-13	09:57:14	11:01:34	11:01:34:265	113	2	Expectancy_rating	expectancy_rating	0	1000	0	0	10	0	5241	1	When you saw the <b>object</b>,   to what <b>degree (0-100%)</b> did you expect the <b>unpleasant sound to occur</b>?	-16	35	Cue35.jpg	-16	0	0	0
13	2023-04-13	09:57:14	11:01:48	11:01:48:09	114	1	countdown	instructions	0	5	0	0	57	0	13691	1	<center><br><br> <b>WATCH CALLIBRATION</b>.                <br><br><br><br>In a couple of seconds a <b>countdown</b> will start that counts down from 3 to 1,       <br><br>after which the screen will show the instruction <b>PRESS BUTTON</b>.       <br><br><b>As soon as you see that screen</b>, you must shortly press the button on your watch.       <br><br> <br><br> Press SPACE  to continue.	-4	0	0	0	0	0	0
13	2023-04-13	09:57:14	11:01:49	11:01:49:018	114	2	countdown	countdown_3	0	5	0	0	0	0	1000	1	3	-16	0	0	0	0	0	0
13	2023-04-13	09:57:14	11:01:50	11:01:50:035	114	3	countdown	countdown_2	0	5	0	0	0	0	1000	1	2	-16	0	0	0	0	0	0
13	2023-04-13	09:57:14	11:01:51	11:01:51:052	114	4	countdown	countdown_1	0	5	0	0	0	0	1000	1	1	-16	0	0	0	0	0	0
13	2023-04-13	09:57:14	11:01:52	11:01:52:069	114	5	countdown	press_button	0	5	0	0	0	0	1000	1	PRESS BUTTON NOW	-16	0	0	0	0	0	0
13	2023-04-13	09:57:14	11:02:07	11:02:07:102	115	1	continue_TNT	continue_TNT	0	5	0	0	0	0	15000	1	<center> <br><br><br> We will now continue with the next block of the attention task.   <br><br><br><center>Keep your fingers balanced on the <b>1, 2 and 3 </b>on the keyboard throughout the task   <br><br>to give the rating how well you were <b>able to think</b> or <b>not think</b> (1 = NEVER, 2 = BRIEFLY, 3 = OFTEN).	-16	0	0	0	0	0	0
13	2023-04-13	09:57:14	11:02:08	11:02:08:603	116	1	TNT_Think_CSm	fixation	0	5	500	0	0	1	495	1	+	-8	0	0	0	0	0	0
13	2023-04-13	09:57:14	11:02:09	11:02:09:620	116	2	TNT_Think_CSm	Think	0	5	0	0	0	0	1000	1	THINK	-16	0	0	0	0	0	0
13	2023-04-13	09:57:14	11:02:14	11:02:14:637	116	3	TNT_Think_CSm	TNT_Think_CSm	0	5	0	0	0	0	5000	1	Cue6.jpg	-16	0	0	0	0	0	0
13	2023-04-13	09:57:14	11:02:15	11:02:15:698	116	4	TNT_Think_CSm	Intrusion	0	500	3000	0	4	1	1044	1	How <b>often</b> did you <b>think</b> about the <b>scene</b>?   <center><br><b>NEVER (1)    BRIEFLY (2)   OFTEN (3) </b>	-16	0	0	0	0	0	0
13	2023-04-13	09:57:14	11:02:18	11:02:18:640	117	1	TNT_NoThink_CSp	fixation	0	5	1000	0	0	1	995	1	+	-16	0	0	0	0	0	0
13	2023-04-13	09:57:14	11:02:19	11:02:19:654	117	2	TNT_NoThink_CSp	NoThink	0	5	0	0	0	0	1000	1	DON'T THINK	-16	0	0	0	0	0	0
13	2023-04-13	09:57:14	11:02:24	11:02:24:670	117	3	TNT_NoThink_CSp	TNT_NoThink_CSp	0	5	0	0	0	0	5000	6	Cue36.jpg	-16	0	0	0	0	0	0
13	2023-04-13	09:57:14	11:02:25	11:02:25:634	117	4	TNT_NoThink_CSp	Intrusion	0	1000	3000	0	3	1	946	1	How <b>often</b> did you <b>think</b> about the <b>scene</b>?   <center><br><b>NEVER (1)    BRIEFLY (2)   OFTEN (3) </b>	-16	0	0	0	0	0	0
13	2023-04-13	09:57:14	11:02:27	11:02:27:174	118	1	TNT_Think_CSp	fixation	0	5	500	0	0	1	495	1	+	-8	0	0	0	0	0	0
13	2023-04-13	09:57:14	11:02:28	11:02:28:187	118	2	TNT_Think_CSp	Think	0	5	0	0	0	0	1000	1	THINK	-16	0	0	0	0	0	0
13	2023-04-13	09:57:14	11:02:33	11:02:33:204	118	3	TNT_Think_CSp	TNT_Think_CSp	0	5	0	0	0	0	5000	3	Cue20.jpg	-16	0	0	0	0	0	0
13	2023-04-13	09:57:14	11:02:34	11:02:34:186	118	4	TNT_Think_CSp	Intrusion	0	1500	3000	0	4	1	964	1	How <b>often</b> did you <b>think</b> about the <b>scene</b>?   <center><br><b>NEVER (1)    BRIEFLY (2)   OFTEN (3) </b>	-16	0	0	0	0	0	0
13	2023-04-13	09:57:14	11:02:37	11:02:37:208	119	1	TNT_Think_CSp	fixation	0	5	1000	0	0	1	995	1	+	-7	0	0	0	0	0	0
13	2023-04-13	09:57:14	11:02:38	11:02:38:221	119	2	TNT_Think_CSp	Think	0	5	0	0	0	0	1000	1	THINK	-16	0	0	0	0	0	0
13	2023-04-13	09:57:14	11:02:43	11:02:43:238	119	3	TNT_Think_CSp	TNT_Think_CSp	0	5	0	0	0	0	5000	5	Cue22.jpg	-16	0	0	0	0	0	0
13	2023-04-13	09:57:14	11:02:44	11:02:44:642	119	4	TNT_Think_CSp	Intrusion	0	1000	3000	0	4	1	386	1	How <b>often</b> did you <b>think</b> about the <b>scene</b>?   <center><br><b>NEVER (1)    BRIEFLY (2)   OFTEN (3) </b>	-16	0	0	0	0	0	0
13	2023-04-13	09:57:14	11:02:48	11:02:48:741	120	1	TNT_NoThink_CSm	fixation	0	5	1500	0	0	1	1495	1	+	-16	0	0	0	0	0	0
13	2023-04-13	09:57:14	11:02:49	11:02:49:755	120	2	TNT_NoThink_CSm	NoThink	0	5	0	0	0	0	1000	1	DON'T THINK	-16	0	0	0	0	0	0
13	2023-04-13	09:57:14	11:02:54	11:02:54:772	120	3	TNT_NoThink_CSm	TNT_NoThink_CSm	0	5	0	0	0	0	5000	4	Cue18.jpg	-16	0	0	0	0	0	0
13	2023-04-13	09:57:14	11:02:55	11:02:55:890	120	4	TNT_NoThink_CSm	Intrusion	0	500	3000	0	3	1	1100	1	How <b>often</b> did you <b>think</b> about the <b>scene</b>?   <center><br><b>NEVER (1)    BRIEFLY (2)   OFTEN (3) </b>	-16	0	0	0	0	0	0
13	2023-04-13	09:57:14	11:02:59	11:02:59:276	121	1	TNT_Object_CSp	fixation	0	5	1500	0	0	1	1495	1	+	-16	0	0	0	0	0	0
13	2023-04-13	09:57:14	11:03:00	11:03:00:289	121	2	TNT_Object_CSp	Passive	0	5	0	0	0	0	1000	1	VIEW	-16	0	0	0	0	0	0
13	2023-04-13	09:57:14	11:03:05	11:03:05:306	121	3	TNT_Object_CSp	TNT_Object_CSp	0	500	0	0	0	0	5000	1	Object7.jpg	-16	0	0	0	0	0	0
13	2023-04-13	09:57:14	11:03:06	11:03:06:805	122	1	TNT_NoThink_CSp	fixation	0	5	1000	0	0	1	995	1	+	-8	0	0	0	0	0	0
13	2023-04-13	09:57:14	11:03:07	11:03:07:823	122	2	TNT_NoThink_CSp	NoThink	0	5	0	0	0	0	1000	1	DON'T THINK	-16	0	0	0	0	0	0
13	2023-04-13	09:57:14	11:03:12	11:03:12:840	122	3	TNT_NoThink_CSp	TNT_NoThink_CSp	0	5	0	0	0	0	5000	1	Cue33.jpg	-16	0	0	0	0	0	0
13	2023-04-13	09:57:14	11:03:13	11:03:13:618	122	4	TNT_NoThink_CSp	Intrusion	0	1500	3000	0	2	1	760	1	How <b>often</b> did you <b>think</b> about the <b>scene</b>?   <center><br><b>NEVER (1)    BRIEFLY (2)   OFTEN (3) </b>	-16	0	0	0	0	0	0
13	2023-04-13	09:57:14	11:03:16	11:03:16:343	123	1	TNT_Think_CSm	fixation	0	5	500	0	0	1	495	1	+	-8	0	0	0	0	0	0
13	2023-04-13	09:57:14	11:03:17	11:03:17:357	123	2	TNT_Think_CSm	Think	0	5	0	0	0	0	1000	1	THINK	-16	0	0	0	0	0	0
13	2023-04-13	09:57:14	11:03:22	11:03:22:374	123	3	TNT_Think_CSm	TNT_Think_CSm	0	5	0	0	0	0	5000	6	Cue35.jpg	-16	0	0	0	0	0	0
13	2023-04-13	09:57:14	11:03:23	11:03:23:394	123	4	TNT_Think_CSm	Intrusion	0	1500	3000	0	4	1	1002	1	How <b>often</b> did you <b>think</b> about the <b>scene</b>?   <center><br><b>NEVER (1)    BRIEFLY (2)   OFTEN (3) </b>	-16	0	0	0	0	0	0
13	2023-04-13	09:57:14	11:03:26	11:03:26:878	124	1	TNT_Think_CSm	fixation	0	5	1500	0	0	1	1495	1	+	-16	0	0	0	0	0	0
13	2023-04-13	09:57:14	11:03:27	11:03:27:891	124	2	TNT_Think_CSm	Think	0	5	0	0	0	0	1000	1	THINK	-16	0	0	0	0	0	0
13	2023-04-13	09:57:14	11:03:32	11:03:32:907	124	3	TNT_Think_CSm	TNT_Think_CSm	0	5	0	0	0	0	5000	3	Cue14.jpg	-16	0	0	0	0	0	0
13	2023-04-13	09:57:14	11:03:33	11:03:33:714	124	4	TNT_Think_CSm	Intrusion	0	1000	3000	0	4	1	788	1	How <b>often</b> did you <b>think</b> about the <b>scene</b>?   <center><br><b>NEVER (1)    BRIEFLY (2)   OFTEN (3) </b>	-16	0	0	0	0	0	0
13	2023-04-13	09:57:14	11:03:36	11:03:36:911	125	1	TNT_Object_CSp	fixation	0	5	1000	0	0	1	995	1	+	-16	0	0	0	0	0	0
13	2023-04-13	09:57:14	11:03:37	11:03:37:924	125	2	TNT_Object_CSp	Passive	0	5	0	0	0	0	1000	1	VIEW	-16	0	0	0	0	0	0
13	2023-04-13	09:57:14	11:03:42	11:03:42:942	125	3	TNT_Object_CSp	TNT_Object_CSp	0	1500	0	0	0	0	5000	2	Object8.jpg	-16	0	0	0	0	0	0
