subject	date	time	currenttime	currenttime_plus_ms	blocknum	trialnum	blockcode	trialcode	pretrialpause	posttrialpause	trialduration	trialtimeout	response	correct	latency	stimulusnumber1	stimulusitem1	stimulusonset1	stimulusnumber2	stimulusitem2	stimulusonset2	stimulusnumber3	stimulusitem3	stimulusonset3
9	2023-04-04	08:42:35	08:43:10	08:43:10:513	2	1	Reminder_NoThink_CSm	fixation	0	5	500	0	0	1	495	1	+	-16	0	0	0	0	0	0
9	2023-04-04	08:42:35	08:43:15	08:43:15:537	2	2	Reminder_NoThink_CSm	NoThink_CSm	0	5	0	0	0	0	5000	1	+	-16	2	Cue20.jpg	-16	2	Target20.jpg	-16
9	2023-04-04	08:42:35	08:43:25	08:43:25:038	2	3	Reminder_NoThink_CSm	valence	0	5	0	0	42	0	9440	1	I found these images to be...	-5	0	0	0	0	0	0
9	2023-04-04	08:42:35	08:43:29	08:43:29:621	2	4	Reminder_NoThink_CSm	expectancy	0	1000	0	0	0	0	4532	1	When you saw the <b>object-scene</b>,   to what <b>degree (0-100%)</b> did you expect the <b>unpleasant sound to occur</b>?	-4	0	0	0	0	0	0
9	2023-04-04	08:42:35	08:43:31	08:43:31:620	3	1	Reminder_NoThink_CSp	fixation	0	5	1000	0	0	1	995	1	+	-14	0	0	0	0	0	0
9	2023-04-04	08:42:35	08:43:36	08:43:36:638	3	2	Reminder_NoThink_CSp	NoThink_CSp	0	5	0	0	0	0	5000	1	+	-14	2	Cue33.jpg	-14	2	Target33.jpg	-14
9	2023-04-04	08:42:35	08:43:41	08:43:41:405	3	3	Reminder_NoThink_CSp	valence	0	5	0	0	26	0	4716	1	I found these images to be...	-16	0	0	0	0	0	0
9	2023-04-04	08:42:35	08:43:44	08:43:44:072	3	4	Reminder_NoThink_CSp	expectancy	0	1500	0	0	100	0	2620	1	When you saw the <b>object-scene</b>,   to what <b>degree (0-100%)</b> did you expect the <b>unpleasant sound to occur</b>?	-12	0	0	0	0	0	0
9	2023-04-04	08:42:35	08:43:47	08:43:47:071	4	1	Reminder_NoThink_CSp	fixation	0	5	1500	0	0	1	1495	1	+	-15	0	0	0	0	0	0
9	2023-04-04	08:42:35	08:43:52	08:43:52:089	4	2	Reminder_NoThink_CSp	NoThink_CSp	0	5	0	0	0	0	5000	1	+	-14	4	Cue9.jpg	-14	4	Target9.jpg	-14
9	2023-04-04	08:42:35	08:43:59	08:43:59:140	4	3	Reminder_NoThink_CSp	valence	0	5	0	0	29	0	7024	1	I found these images to be...	-16	0	0	0	0	0	0
9	2023-04-04	08:42:35	08:44:02	08:44:02:324	4	4	Reminder_NoThink_CSp	expectancy	0	500	0	0	90	0	3142	1	When you saw the <b>object-scene</b>,   to what <b>degree (0-100%)</b> did you expect the <b>unpleasant sound to occur</b>?	-12	0	0	0	0	0	0
9	2023-04-04	08:42:35	08:44:04	08:44:04:323	5	1	Reminder_Baseline_CSm	fixation	0	5	1500	0	0	1	1495	1	+	-14	0	0	0	0	0	0
9	2023-04-04	08:42:35	08:44:09	08:44:09:341	5	2	Reminder_Baseline_CSm	Baseline_CSm	0	5	0	0	0	0	5000	1	+	-16	2	Cue17.jpg	-16	2	Target17.jpg	-16
9	2023-04-04	08:42:35	08:44:14	08:44:14:373	5	3	Reminder_Baseline_CSm	valence	0	5	0	0	31	0	4982	1	I found these images to be...	-16	0	0	0	0	0	0
9	2023-04-04	08:42:35	08:44:16	08:44:16:874	5	4	Reminder_Baseline_CSm	expectancy	0	500	0	0	70	0	2435	1	When you saw the <b>object-scene</b>,   to what <b>degree (0-100%)</b> did you expect the <b>unpleasant sound to occur</b>?	-7	0	0	0	0	0	0
9	2023-04-04	08:42:35	08:44:17	08:44:17:878	6	1	Reminder_NoThink_CSm	fixation	0	5	500	0	0	1	495	1	+	-8	0	0	0	0	0	0
9	2023-04-04	08:42:35	08:44:22	08:44:22:894	6	2	Reminder_NoThink_CSm	NoThink_CSm	0	5	0	0	0	0	5000	1	+	-16	6	Cue11.jpg	-16	6	Target11.jpg	-16
9	2023-04-04	08:42:35	08:44:26	08:44:26:992	6	3	Reminder_NoThink_CSm	valence	0	5	0	0	50	0	4071	1	I found these images to be...	-16	0	0	0	0	0	0
9	2023-04-04	08:42:35	08:44:32	08:44:32:659	6	4	Reminder_NoThink_CSm	expectancy	0	1500	0	0	0	0	5618	1	When you saw the <b>object-scene</b>,   to what <b>degree (0-100%)</b> did you expect the <b>unpleasant sound to occur</b>?	0	0	0	0	0	0	0
9	2023-04-04	08:42:35	08:44:35	08:44:35:161	7	1	Reminder_Baseline_CSp	fixation	0	5	1000	0	0	1	995	1	+	-8	0	0	0	0	0	0
9	2023-04-04	08:42:35	08:44:40	08:44:40:178	7	2	Reminder_Baseline_CSp	Baseline_CSp	0	5	0	0	0	0	5000	1	+	-16	6	Cue35.jpg	-16	6	Target35.jpg	-16
9	2023-04-04	08:42:35	08:44:48	08:44:48:059	7	3	Reminder_Baseline_CSp	valence	0	5	0	0	38	0	7827	1	I found these images to be...	-16	0	0	0	0	0	0
9	2023-04-04	08:42:35	08:44:54	08:44:54:193	7	4	Reminder_Baseline_CSp	expectancy	0	1000	0	0	89	0	6078	1	When you saw the <b>object-scene</b>,   to what <b>degree (0-100%)</b> did you expect the <b>unpleasant sound to occur</b>?	-7	0	0	0	0	0	0
9	2023-04-04	08:42:35	08:44:55	08:44:55:692	8	1	Reminder_Think_CSm	fixation	0	5	500	0	0	1	495	1	+	-15	0	0	0	0	0	0
9	2023-04-04	08:42:35	08:45:00	08:45:00:710	8	2	Reminder_Think_CSm	Think_CSm	0	5	0	0	0	0	5000	1	+	-16	2	Cue3.jpg	-16	2	Target3.jpg	-16
9	2023-04-04	08:42:35	08:45:05	08:45:05:560	8	3	Reminder_Think_CSm	valence	0	5	0	0	30	0	4796	1	I found these images to be...	-16	0	0	0	0	0	0
9	2023-04-04	08:42:35	08:45:08	08:45:08:328	8	4	Reminder_Think_CSm	expectancy	0	500	0	0	64	0	2729	1	When you saw the <b>object-scene</b>,   to what <b>degree (0-100%)</b> did you expect the <b>unpleasant sound to occur</b>?	-7	0	0	0	0	0	0
9	2023-04-04	08:42:35	08:45:10	08:45:10:326	9	1	Reminder_Baseline_CSm	fixation	0	5	1500	0	0	1	1495	1	+	-15	0	0	0	0	0	0
9	2023-04-04	08:42:35	08:45:15	08:45:15:344	9	2	Reminder_Baseline_CSm	Baseline_CSm	0	5	0	0	0	0	5000	1	+	-14	4	Cue25.jpg	-14	4	Target25.jpg	-14
9	2023-04-04	08:42:35	08:45:21	08:45:21:061	9	3	Reminder_Baseline_CSm	valence	0	5	0	0	21	0	5666	1	I found these images to be...	-16	0	0	0	0	0	0
9	2023-04-04	08:42:35	08:45:25	08:45:25:979	9	4	Reminder_Baseline_CSm	expectancy	0	1000	0	0	28	0	4868	1	When you saw the <b>object-scene</b>,   to what <b>degree (0-100%)</b> did you expect the <b>unpleasant sound to occur</b>?	-12	0	0	0	0	0	0
9	2023-04-04	08:42:35	08:45:27	08:45:27:978	10	1	Reminder_NoThink_CSm	fixation	0	5	1000	0	0	1	995	1	+	-15	0	0	0	0	0	0
9	2023-04-04	08:42:35	08:45:32	08:45:32:995	10	2	Reminder_NoThink_CSm	NoThink_CSm	0	5	0	0	0	0	5000	1	+	-14	3	Cue31.jpg	-14	3	Target31.jpg	-14
9	2023-04-04	08:42:35	08:45:35	08:45:35:896	10	3	Reminder_NoThink_CSm	valence	0	5	0	0	19	0	2871	1	I found these images to be...	-16	0	0	0	0	0	0
9	2023-04-04	08:42:35	08:45:40	08:45:40:363	10	4	Reminder_NoThink_CSm	expectancy	0	1500	0	0	28	0	4426	1	When you saw the <b>object-scene</b>,   to what <b>degree (0-100%)</b> did you expect the <b>unpleasant sound to occur</b>?	-12	0	0	0	0	0	0
9	2023-04-04	08:42:35	08:45:43	08:45:43:362	11	1	Reminder_NoThink_CSm	fixation	0	5	1500	0	0	1	1495	1	+	-15	0	0	0	0	0	0
9	2023-04-04	08:42:35	08:45:48	08:45:48:380	11	2	Reminder_NoThink_CSm	NoThink_CSm	0	5	0	0	0	0	5000	1	+	-14	5	Cue16.jpg	-14	5	Target16.jpg	-14
9	2023-04-04	08:42:35	08:45:54	08:45:54:080	11	3	Reminder_NoThink_CSm	valence	0	5	0	0	47	0	5671	1	I found these images to be...	-16	0	0	0	0	0	0
9	2023-04-04	08:42:35	08:46:01	08:46:01:164	11	4	Reminder_NoThink_CSm	expectancy	0	1500	0	0	7	0	7018	1	When you saw the <b>object-scene</b>,   to what <b>degree (0-100%)</b> did you expect the <b>unpleasant sound to occur</b>?	0	0	0	0	0	0	0
9	2023-04-04	08:42:35	08:46:03	08:46:03:651	12	1	Reminder_Objects_CSp	fixation	0	5	1000	0	0	1	995	1	+	-9	0	0	0	0	0	0
9	2023-04-04	08:42:35	08:46:08	08:46:08:666	12	2	Reminder_Objects_CSp	Objects_CSp	0	5	0	0	0	0	5000	3	Object5.jpg	-16	0	0	0	0	0	0
9	2023-04-04	08:42:35	08:46:11	08:46:11:748	12	3	Reminder_Objects_CSp	expectancy_object	0	1500	0	0	86	0	3058	1	When you saw the <b>object</b>,   to what <b>degree (0-100%)</b> did you expect the <b>unpleasant sound to occur</b>?	-16	0	0	0	0	0	0
9	2023-04-04	08:42:35	08:46:13	08:46:13:751	13	1	Reminder_Baseline_CSm	fixation	0	5	500	0	0	1	495	1	+	-8	0	0	0	0	0	0
9	2023-04-04	08:42:35	08:46:18	08:46:18:768	13	2	Reminder_Baseline_CSm	Baseline_CSm	0	5	0	0	0	0	5000	1	+	-16	6	Cue22.jpg	-16	6	Target22.jpg	-16
9	2023-04-04	08:42:35	08:46:22	08:46:22:982	13	3	Reminder_Baseline_CSm	valence	0	5	0	0	40	0	4190	1	I found these images to be...	-16	0	0	0	0	0	0
9	2023-04-04	08:42:35	08:46:28	08:46:28:449	13	4	Reminder_Baseline_CSm	expectancy	0	1000	0	0	0	0	5420	1	When you saw the <b>object-scene</b>,   to what <b>degree (0-100%)</b> did you expect the <b>unpleasant sound to occur</b>?	0	0	0	0	0	0	0
9	2023-04-04	08:42:35	08:46:29	08:46:29:952	14	1	Reminder_Objects_CSp	fixation	0	5	500	0	0	1	495	1	+	-9	0	0	0	0	0	0
9	2023-04-04	08:42:35	08:46:34	08:46:34:968	14	2	Reminder_Objects_CSp	Objects_CSp	0	5	0	0	0	0	5000	4	Object1.jpg	-16	0	0	0	0	0	0
9	2023-04-04	08:42:35	08:46:36	08:46:36:949	14	3	Reminder_Objects_CSp	expectancy_object	0	1000	0	0	63	0	1932	1	When you saw the <b>object</b>,   to what <b>degree (0-100%)</b> did you expect the <b>unpleasant sound to occur</b>?	-16	0	0	0	0	0	0
9	2023-04-04	08:42:35	08:46:38	08:46:38:936	15	1	Reminder_Think_CSp	fixation	0	5	1000	0	0	1	995	1	+	-3	0	0	0	0	0	0
9	2023-04-04	08:42:35	08:46:43	08:46:43:952	15	2	Reminder_Think_CSp	Think_CSp	0	5	0	0	0	0	5000	1	+	-16	3	Cue8.jpg	-16	3	Target8.jpg	-16
9	2023-04-04	08:42:35	08:46:48	08:46:48:867	15	3	Reminder_Think_CSp	valence	0	5	0	0	57	0	4892	1	I found these images to be...	-16	0	0	0	0	0	0
9	2023-04-04	08:42:35	08:46:57	08:46:57:567	15	4	Reminder_Think_CSp	expectancy	0	500	0	0	80	0	8631	1	When you saw the <b>object-scene</b>,   to what <b>degree (0-100%)</b> did you expect the <b>unpleasant sound to occur</b>?	0	0	0	0	0	0	0
9	2023-04-04	08:42:35	08:46:59	08:46:59:554	16	1	Reminder_Baseline_CSm	fixation	0	5	1500	0	0	1	1495	1	+	-8	0	0	0	0	0	0
9	2023-04-04	08:42:35	08:47:04	08:47:04:570	16	2	Reminder_Baseline_CSm	Baseline_CSm	0	5	0	0	0	0	5000	1	+	-16	1	Cue27.jpg	-16	1	Target27.jpg	-16
9	2023-04-04	08:42:35	08:47:08	08:47:08:381	16	3	Reminder_Baseline_CSm	valence	0	5	0	0	32	0	3763	1	I found these images to be...	-16	0	0	0	0	0	0
9	2023-04-04	08:42:35	08:47:11	08:47:11:036	16	4	Reminder_Baseline_CSm	expectancy	0	500	0	0	0	0	2626	1	When you saw the <b>object-scene</b>,   to what <b>degree (0-100%)</b> did you expect the <b>unpleasant sound to occur</b>?	0	0	0	0	0	0	0
9	2023-04-04	08:42:35	08:47:12	08:47:12:034	17	1	PracticeItems_Think	fixation	0	5	500	0	0	1	495	1	+	-14	0	0	0	0	0	0
9	2023-04-04	08:42:35	08:47:17	08:47:17:052	17	2	PracticeItems_Think	PracticeItems_Think	0	5	0	0	0	0	5000	1	+	-14	1	Cue37.jpg	-14	1	Target37.jpg	-14
9	2023-04-04	08:42:35	08:47:26	08:47:26:286	17	3	PracticeItems_Think	valence	0	5	0	0	23	0	9206	1	I found these images to be...	-16	0	0	0	0	0	0
9	2023-04-04	08:42:35	08:47:31	08:47:31:153	17	4	PracticeItems_Think	expectancy	0	1000	0	0	24	0	4828	1	When you saw the <b>object-scene</b>,   to what <b>degree (0-100%)</b> did you expect the <b>unpleasant sound to occur</b>?	-12	0	0	0	0	0	0
9	2023-04-04	08:42:35	08:47:33	08:47:33:152	18	1	Reminder_Objects_CSm	fixation	0	5	1000	0	0	1	995	1	+	-15	0	0	0	0	0	0
9	2023-04-04	08:42:35	08:47:38	08:47:38:170	18	2	Reminder_Objects_CSm	Objects_CSm	0	5	0	0	0	0	5000	2	Object6.jpg	-14	0	0	0	0	0	0
9	2023-04-04	08:42:35	08:47:40	08:47:40:670	18	3	Reminder_Objects_CSm	expectancy_object	0	500	0	0	2	0	2448	1	When you saw the <b>object</b>,   to what <b>degree (0-100%)</b> did you expect the <b>unpleasant sound to occur</b>?	-16	0	0	0	0	0	0
9	2023-04-04	08:42:35	08:47:42	08:47:42:657	19	1	Reminder_Baseline_CSp	fixation	0	5	1500	0	0	1	1495	1	+	-8	0	0	0	0	0	0
9	2023-04-04	08:42:35	08:47:47	08:47:47:673	19	2	Reminder_Baseline_CSp	Baseline_CSp	0	5	0	0	0	0	5000	1	+	-16	1	Cue6.jpg	-16	1	Target6.jpg	-16
9	2023-04-04	08:42:35	08:47:55	08:47:55:905	19	3	Reminder_Baseline_CSp	valence	0	5	0	0	34	0	8212	1	I found these images to be...	-16	0	0	0	0	0	0
9	2023-04-04	08:42:35	08:48:00	08:48:00:305	19	4	Reminder_Baseline_CSp	expectancy	0	1500	0	0	82	0	4353	1	When you saw the <b>object-scene</b>,   to what <b>degree (0-100%)</b> did you expect the <b>unpleasant sound to occur</b>?	-12	0	0	0	0	0	0
9	2023-04-04	08:42:35	08:48:02	08:48:02:806	20	1	Reminder_NoThink_CSp	fixation	0	5	1000	0	0	1	995	1	+	-15	0	0	0	0	0	0
9	2023-04-04	08:42:35	08:48:07	08:48:07:822	20	2	Reminder_NoThink_CSp	NoThink_CSp	0	5	0	0	0	0	5000	1	+	-16	6	Cue28.jpg	-16	6	Target28.jpg	-16
9	2023-04-04	08:42:35	08:48:10	08:48:10:605	20	3	Reminder_NoThink_CSp	valence	0	5	0	0	39	0	2733	1	I found these images to be...	-16	0	0	0	0	0	0
9	2023-04-04	08:42:35	08:48:13	08:48:13:639	20	4	Reminder_NoThink_CSp	expectancy	0	1000	0	0	76	0	2988	1	When you saw the <b>object-scene</b>,   to what <b>degree (0-100%)</b> did you expect the <b>unpleasant sound to occur</b>?	-9	0	0	0	0	0	0
9	2023-04-04	08:42:35	08:48:16	08:48:16:138	21	1	Reminder_Think_CSp	fixation	0	5	1500	0	0	1	1495	1	+	-14	0	0	0	0	0	0
9	2023-04-04	08:42:35	08:48:21	08:48:21:156	21	2	Reminder_Think_CSp	Think_CSp	0	5	0	0	0	0	5000	1	+	-14	2	Cue13.jpg	-14	2	Target13.jpg	-14
9	2023-04-04	08:42:35	08:48:27	08:48:27:789	21	3	Reminder_Think_CSp	valence	0	5	0	0	26	0	6583	1	I found these images to be...	-16	0	0	0	0	0	0
9	2023-04-04	08:42:35	08:48:30	08:48:30:174	21	4	Reminder_Think_CSp	expectancy	0	500	0	0	4	0	2340	1	When you saw the <b>object-scene</b>,   to what <b>degree (0-100%)</b> did you expect the <b>unpleasant sound to occur</b>?	-9	0	0	0	0	0	0
9	2023-04-04	08:42:35	08:48:31	08:48:31:173	22	1	Reminder_Think_CSm	fixation	0	5	500	0	0	1	495	1	+	-12	0	0	0	0	0	0
9	2023-04-04	08:42:35	08:48:36	08:48:36:193	22	2	Reminder_Think_CSm	Think_CSm	0	5	0	0	0	0	5000	1	+	-16	4	Cue36.jpg	-16	4	Target36.jpg	-16
9	2023-04-04	08:42:35	08:48:40	08:48:40:408	22	3	Reminder_Think_CSm	valence	0	5	0	0	40	0	4188	1	I found these images to be...	-16	0	0	0	0	0	0
9	2023-04-04	08:42:35	08:48:44	08:48:44:908	22	4	Reminder_Think_CSm	expectancy	0	1500	0	0	60	0	4459	1	When you saw the <b>object-scene</b>,   to what <b>degree (0-100%)</b> did you expect the <b>unpleasant sound to occur</b>?	0	0	0	0	0	0	0
9	2023-04-04	08:42:35	08:48:47	08:48:47:407	23	1	Reminder_Baseline_CSp	fixation	0	5	1000	0	0	1	995	1	+	-15	0	0	0	0	0	0
9	2023-04-04	08:42:35	08:48:52	08:48:52:424	23	2	Reminder_Baseline_CSp	Baseline_CSp	0	5	0	0	0	0	5000	1	+	-16	4	Cue1.jpg	-16	4	Target1.jpg	-16
9	2023-04-04	08:42:35	08:48:56	08:48:56:158	23	3	Reminder_Baseline_CSp	valence	0	5	0	0	12	0	3705	1	I found these images to be...	-16	0	0	0	0	0	0
9	2023-04-04	08:42:35	08:49:00	08:49:00:042	23	4	Reminder_Baseline_CSp	expectancy	0	500	0	0	90	0	3836	1	When you saw the <b>object-scene</b>,   to what <b>degree (0-100%)</b> did you expect the <b>unpleasant sound to occur</b>?	-12	0	0	0	0	0	0
9	2023-04-04	08:42:35	08:49:02	08:49:02:040	24	1	Reminder_Think_CSm	fixation	0	5	1500	0	0	1	1495	1	+	-15	0	0	0	0	0	0
9	2023-04-04	08:42:35	08:49:07	08:49:07:058	24	2	Reminder_Think_CSm	Think_CSm	0	5	0	0	0	0	5000	1	+	-14	1	Cue19.jpg	-14	1	Target19.jpg	-14
9	2023-04-04	08:42:35	08:49:10	08:49:10:126	24	3	Reminder_Think_CSm	valence	0	5	0	0	21	0	3015	1	I found these images to be...	-16	0	0	0	0	0	0
9	2023-04-04	08:42:35	08:49:13	08:49:13:910	24	4	Reminder_Think_CSm	expectancy	0	1000	0	0	81	0	3748	1	When you saw the <b>object-scene</b>,   to what <b>degree (0-100%)</b> did you expect the <b>unpleasant sound to occur</b>?	-10	0	0	0	0	0	0
9	2023-04-04	08:42:35	08:49:15	08:49:15:408	25	1	Reminder_Objects_CSm	fixation	0	5	500	0	0	1	495	1	+	-15	0	0	0	0	0	0
9	2023-04-04	08:42:35	08:49:20	08:49:20:426	25	2	Reminder_Objects_CSm	Objects_CSm	0	5	0	0	0	0	5000	3	Object8.jpg	-15	0	0	0	0	0	0
9	2023-04-04	08:42:35	08:49:23	08:49:23:110	25	3	Reminder_Objects_CSm	expectancy_object	0	500	0	0	1	0	2656	1	When you saw the <b>object</b>,   to what <b>degree (0-100%)</b> did you expect the <b>unpleasant sound to occur</b>?	-16	0	0	0	0	0	0
9	2023-04-04	08:42:35	08:49:24	08:49:24:110	26	1	Reminder_NoThink_CSp	fixation	0	5	500	0	0	1	495	1	+	-5	0	0	0	0	0	0
9	2023-04-04	08:42:35	08:49:29	08:49:29:130	26	2	Reminder_NoThink_CSp	NoThink_CSp	0	5	0	0	0	0	5000	1	+	-16	3	Cue32.jpg	-16	3	Target32.jpg	-16
9	2023-04-04	08:42:35	08:49:33	08:49:33:277	26	3	Reminder_NoThink_CSp	valence	0	5	0	0	25	0	4123	1	I found these images to be...	-16	0	0	0	0	0	0
9	2023-04-04	08:42:35	08:49:35	08:49:35:478	26	4	Reminder_NoThink_CSp	expectancy	0	1500	0	0	78	0	2157	1	When you saw the <b>object-scene</b>,   to what <b>degree (0-100%)</b> did you expect the <b>unpleasant sound to occur</b>?	0	0	0	0	0	0	0
9	2023-04-04	08:42:35	08:49:38	08:49:38:477	27	1	Reminder_NoThink_CSp	fixation	0	5	1500	0	0	1	1495	1	+	-15	0	0	0	0	0	0
9	2023-04-04	08:42:35	08:49:43	08:49:43:494	27	2	Reminder_NoThink_CSp	NoThink_CSp	0	5	0	0	0	0	5000	1	+	-14	5	Cue30.jpg	-14	5	Target30.jpg	-14
9	2023-04-04	08:42:35	08:49:46	08:49:46:978	27	3	Reminder_NoThink_CSp	valence	0	5	0	0	25	0	3460	1	I found these images to be...	-16	0	0	0	0	0	0
9	2023-04-04	08:42:35	08:49:49	08:49:49:779	27	4	Reminder_NoThink_CSp	expectancy	0	1500	0	0	100	0	2760	1	When you saw the <b>object-scene</b>,   to what <b>degree (0-100%)</b> did you expect the <b>unpleasant sound to occur</b>?	-12	0	0	0	0	0	0
9	2023-04-04	08:42:35	08:49:52	08:49:52:277	28	1	Reminder_Objects_CSp	fixation	0	5	1000	0	0	1	995	1	+	-15	0	0	0	0	0	0
9	2023-04-04	08:42:35	08:49:57	08:49:57:295	28	2	Reminder_Objects_CSp	Objects_CSp	0	5	0	0	0	0	5000	1	Object2.jpg	-14	0	0	0	0	0	0
9	2023-04-04	08:42:35	08:49:59	08:49:59:313	28	3	Reminder_Objects_CSp	expectancy_object	0	1500	0	0	100	0	1995	1	When you saw the <b>object</b>,   to what <b>degree (0-100%)</b> did you expect the <b>unpleasant sound to occur</b>?	-16	0	0	0	0	0	0
9	2023-04-04	08:42:35	08:50:01	08:50:01:811	29	1	Reminder_Baseline_CSm	fixation	0	5	1000	0	0	1	995	1	+	-14	0	0	0	0	0	0
9	2023-04-04	08:42:35	08:50:06	08:50:06:829	29	2	Reminder_Baseline_CSm	Baseline_CSm	0	5	0	0	0	0	5000	1	+	-13	3	Cue10.jpg	-13	3	Target10.jpg	-13
9	2023-04-04	08:42:35	08:50:09	08:50:09:913	29	3	Reminder_Baseline_CSm	valence	0	5	0	0	17	0	3061	1	I found these images to be...	-16	0	0	0	0	0	0
9	2023-04-04	08:42:35	08:50:12	08:50:12:430	29	4	Reminder_Baseline_CSm	expectancy	0	500	0	0	80	0	2473	1	When you saw the <b>object-scene</b>,   to what <b>degree (0-100%)</b> did you expect the <b>unpleasant sound to occur</b>?	-12	0	0	0	0	0	0
9	2023-04-04	08:42:35	08:50:13	08:50:13:429	30	1	Reminder_Think_CSm	fixation	0	5	500	0	0	1	495	1	+	-15	0	0	0	0	0	0
9	2023-04-04	08:42:35	08:50:18	08:50:18:447	30	2	Reminder_Think_CSm	Think_CSm	0	5	0	0	0	0	5000	1	+	-13	6	Cue5.jpg	-13	6	Target5.jpg	-13
9	2023-04-04	08:42:35	08:50:20	08:50:20:847	30	3	Reminder_Think_CSm	valence	0	5	0	0	29	0	2372	1	I found these images to be...	-16	0	0	0	0	0	0
9	2023-04-04	08:42:35	08:50:25	08:50:25:081	30	4	Reminder_Think_CSm	expectancy	0	1000	0	0	18	0	4187	1	When you saw the <b>object-scene</b>,   to what <b>degree (0-100%)</b> did you expect the <b>unpleasant sound to occur</b>?	0	0	0	0	0	0	0
9	2023-04-04	08:42:35	08:50:27	08:50:27:581	31	1	Reminder_Baseline_CSm	fixation	0	5	1500	0	0	1	1495	1	+	-9	0	0	0	0	0	0
9	2023-04-04	08:42:35	08:50:32	08:50:32:599	31	2	Reminder_Baseline_CSm	Baseline_CSm	0	5	0	0	0	0	5000	1	+	-16	5	Cue18.jpg	-16	5	Target18.jpg	-16
9	2023-04-04	08:42:35	08:50:35	08:50:35:914	31	3	Reminder_Baseline_CSm	valence	0	5	0	0	22	0	3285	1	I found these images to be...	-16	0	0	0	0	0	0
9	2023-04-04	08:42:35	08:50:40	08:50:40:665	31	4	Reminder_Baseline_CSm	expectancy	0	500	0	0	20	0	4680	1	When you saw the <b>object-scene</b>,   to what <b>degree (0-100%)</b> did you expect the <b>unpleasant sound to occur</b>?	0	0	0	0	0	0	0
9	2023-04-04	08:42:35	08:50:42	08:50:42:149	32	1	PracticeItems_NoThink	fixation	0	5	1000	0	0	1	995	1	+	-9	0	0	0	0	0	0
9	2023-04-04	08:42:35	08:50:47	08:50:47:166	32	2	PracticeItems_NoThink	PracticeItems_NoThink	0	5	0	0	0	0	5000	1	+	-16	2	Cue40.jpg	-16	2	Target40.jpg	-16
9	2023-04-04	08:42:35	08:50:49	08:50:49:265	32	3	PracticeItems_NoThink	valence	0	5	0	0	50	0	2046	1	I found these images to be...	-16	0	0	0	0	0	0
9	2023-04-04	08:42:35	08:50:53	08:50:53:899	32	4	PracticeItems_NoThink	expectancy	0	1000	0	0	81	0	4561	1	When you saw the <b>object-scene</b>,   to what <b>degree (0-100%)</b> did you expect the <b>unpleasant sound to occur</b>?	-9	0	0	0	0	0	0
9	2023-04-04	08:42:35	08:50:55	08:50:55:383	33	1	Reminder_Think_CSp	fixation	0	5	500	0	0	1	495	1	+	-9	0	0	0	0	0	0
9	2023-04-04	08:42:35	08:51:00	08:51:00:401	33	2	Reminder_Think_CSp	Think_CSp	0	5	0	0	0	0	5000	1	+	-16	1	Cue34.jpg	-16	1	Target34.jpg	-16
9	2023-04-04	08:42:35	08:51:03	08:51:03:749	33	3	Reminder_Think_CSp	valence	0	5	0	0	13	0	3300	1	I found these images to be...	-16	0	0	0	0	0	0
9	2023-04-04	08:42:35	08:51:05	08:51:05:950	33	4	Reminder_Think_CSp	expectancy	0	1500	0	0	89	0	2157	1	When you saw the <b>object-scene</b>,   to what <b>degree (0-100%)</b> did you expect the <b>unpleasant sound to occur</b>?	-9	0	0	0	0	0	0
9	2023-04-04	08:42:35	08:51:08	08:51:08:951	34	1	Reminder_Think_CSp	fixation	0	5	1500	0	0	1	1495	1	+	-9	0	0	0	0	0	0
9	2023-04-04	08:42:35	08:51:13	08:51:13:979	34	2	Reminder_Think_CSp	Think_CSp	0	5	0	0	0	0	5000	1	+	-16	4	Cue26.jpg	-16	4	Target26.jpg	-16
9	2023-04-04	08:42:35	08:51:17	08:51:17:100	34	3	Reminder_Think_CSp	valence	0	5	0	0	23	0	3067	1	I found these images to be...	-7	0	0	0	0	0	0
9	2023-04-04	08:42:35	08:51:19	08:51:19:150	34	4	Reminder_Think_CSp	expectancy	0	1000	0	0	84	0	1965	1	When you saw the <b>object-scene</b>,   to what <b>degree (0-100%)</b> did you expect the <b>unpleasant sound to occur</b>?	-7	0	0	0	0	0	0
9	2023-04-04	08:42:35	08:51:21	08:51:21:636	35	1	Reminder_NoThink_CSm	fixation	0	5	1500	0	0	1	1495	1	+	-8	0	0	0	0	0	0
9	2023-04-04	08:42:35	08:51:26	08:51:26:653	35	2	Reminder_NoThink_CSm	NoThink_CSm	0	5	0	0	0	0	5000	1	+	-16	1	Cue7.jpg	-16	1	Target7.jpg	-16
9	2023-04-04	08:42:35	08:51:29	08:51:29:585	35	3	Reminder_NoThink_CSm	valence	0	5	0	0	9	0	2904	1	I found these images to be...	-16	0	0	0	0	0	0
9	2023-04-04	08:42:35	08:51:35	08:51:35:068	35	4	Reminder_NoThink_CSm	expectancy	0	500	0	0	27	0	5417	1	When you saw the <b>object-scene</b>,   to what <b>degree (0-100%)</b> did you expect the <b>unpleasant sound to occur</b>?	0	0	0	0	0	0	0
9	2023-04-04	08:42:35	08:51:36	08:51:36:554	36	1	Reminder_Baseline_CSp	fixation	0	5	1000	0	0	1	995	1	+	-4	0	0	0	0	0	0
9	2023-04-04	08:42:35	08:51:41	08:51:41:571	36	2	Reminder_Baseline_CSp	Baseline_CSp	0	5	0	0	0	0	5000	1	+	-16	5	Cue4.jpg	-16	5	Target4.jpg	-16
9	2023-04-04	08:42:35	08:51:49	08:51:49:035	36	3	Reminder_Baseline_CSp	valence	0	5	0	0	43	0	7442	1	I found these images to be...	-16	0	0	0	0	0	0
9	2023-04-04	08:42:35	08:51:53	08:51:53:686	36	4	Reminder_Baseline_CSp	expectancy	0	1500	0	0	90	0	4606	1	When you saw the <b>object-scene</b>,   to what <b>degree (0-100%)</b> did you expect the <b>unpleasant sound to occur</b>?	3	0	0	0	0	0	0
9	2023-04-04	08:42:35	08:51:55	08:51:55:689	37	1	Reminder_Baseline_CSp	fixation	0	5	500	0	0	1	495	1	+	-9	0	0	0	0	0	0
9	2023-04-04	08:42:35	08:52:00	08:52:00:705	37	2	Reminder_Baseline_CSp	Baseline_CSp	0	5	0	0	0	0	5000	1	+	-16	2	Cue21.jpg	-16	2	Target21.jpg	-16
9	2023-04-04	08:42:35	08:52:05	08:52:05:187	37	3	Reminder_Baseline_CSp	valence	0	5	0	0	40	0	4427	1	I found these images to be...	-16	0	0	0	0	0	0
9	2023-04-04	08:42:35	08:52:07	08:52:07:103	37	4	Reminder_Baseline_CSp	expectancy	0	1500	0	0	84	0	1854	1	When you saw the <b>object-scene</b>,   to what <b>degree (0-100%)</b> did you expect the <b>unpleasant sound to occur</b>?	-6	0	0	0	0	0	0
9	2023-04-04	08:42:35	08:52:09	08:52:09:602	38	1	Reminder_Think_CSm	fixation	0	5	1000	0	0	1	995	1	+	-15	0	0	0	0	0	0
9	2023-04-04	08:42:35	08:52:14	08:52:14:620	38	2	Reminder_Think_CSm	Think_CSm	0	5	0	0	0	0	5000	1	+	-14	5	Cue15.jpg	-14	5	Target15.jpg	-14
9	2023-04-04	08:42:35	08:52:26	08:52:26:622	38	3	Reminder_Think_CSm	valence	0	5	0	0	24	0	11974	1	I found these images to be...	-16	0	0	0	0	0	0
9	2023-04-04	08:42:35	08:52:32	08:52:32:088	38	4	Reminder_Think_CSm	expectancy	0	500	0	0	16	0	5420	1	When you saw the <b>object-scene</b>,   to what <b>degree (0-100%)</b> did you expect the <b>unpleasant sound to occur</b>?	-12	0	0	0	0	0	0
9	2023-04-04	08:42:35	08:52:33	08:52:33:087	39	1	Reminder_Objects_CSm	fixation	0	5	500	0	0	1	495	1	+	-14	0	0	0	0	0	0
9	2023-04-04	08:42:35	08:52:38	08:52:38:105	39	2	Reminder_Objects_CSm	Objects_CSm	0	5	0	0	0	0	5000	1	Object7.jpg	-14	0	0	0	0	0	0
9	2023-04-04	08:42:35	08:52:40	08:52:40:305	39	3	Reminder_Objects_CSm	expectancy_object	0	1000	0	0	0	0	2177	1	When you saw the <b>object</b>,   to what <b>degree (0-100%)</b> did you expect the <b>unpleasant sound to occur</b>?	-16	0	0	0	0	0	0
9	2023-04-04	08:42:35	08:52:42	08:52:42:804	40	1	Reminder_Think_CSm	fixation	0	5	1500	0	0	1	1495	1	+	-15	0	0	0	0	0	0
9	2023-04-04	08:42:35	08:52:47	08:52:47:825	40	2	Reminder_Think_CSm	Think_CSm	0	5	0	0	0	0	5000	1	+	-10	3	Cue12.jpg	-10	3	Target12.jpg	-10
9	2023-04-04	08:42:35	08:52:52	08:52:52:473	40	3	Reminder_Think_CSm	valence	0	5	0	0	45	0	4596	1	I found these images to be...	-16	0	0	0	0	0	0
9	2023-04-04	08:42:35	08:52:55	08:52:55:073	40	4	Reminder_Think_CSm	expectancy	0	1000	0	0	20	0	2536	1	When you saw the <b>object-scene</b>,   to what <b>degree (0-100%)</b> did you expect the <b>unpleasant sound to occur</b>?	-7	0	0	0	0	0	0
9	2023-04-04	08:42:35	08:52:56	08:52:56:572	41	1	Reminder_Think_CSp	fixation	0	5	500	0	0	1	495	1	+	-15	0	0	0	0	0	0
9	2023-04-04	08:42:35	08:53:01	08:53:01:590	41	2	Reminder_Think_CSp	Think_CSp	0	5	0	0	0	0	5000	1	+	-16	6	Cue14.jpg	-16	6	Target14.jpg	-16
9	2023-04-04	08:42:35	08:53:07	08:53:07:07	41	3	Reminder_Think_CSp	valence	0	5	0	0	29	0	5396	1	I found these images to be...	-16	0	0	0	0	0	0
9	2023-04-04	08:42:35	08:53:09	08:53:09:658	41	4	Reminder_Think_CSp	expectancy	0	1000	0	0	98	0	2602	1	When you saw the <b>object-scene</b>,   to what <b>degree (0-100%)</b> did you expect the <b>unpleasant sound to occur</b>?	-10	0	0	0	0	0	0
9	2023-04-04	08:42:35	08:53:12	08:53:12:157	42	1	PracticeItems_NoThink	fixation	0	5	1500	0	0	1	1495	1	+	-15	0	0	0	0	0	0
9	2023-04-04	08:42:35	08:53:17	08:53:17:174	42	2	PracticeItems_NoThink	PracticeItems_NoThink	0	5	0	0	0	0	5000	1	+	-16	1	Cue39.jpg	-16	1	Target39.jpg	-16
9	2023-04-04	08:42:35	08:53:22	08:53:22:275	42	3	PracticeItems_NoThink	valence	0	5	0	0	19	0	5068	1	I found these images to be...	-16	0	0	0	0	0	0
9	2023-04-04	08:42:35	08:53:24	08:53:24:658	42	4	PracticeItems_NoThink	expectancy	0	500	0	0	100	0	2335	1	When you saw the <b>object-scene</b>,   to what <b>degree (0-100%)</b> did you expect the <b>unpleasant sound to occur</b>?	-12	0	0	0	0	0	0
9	2023-04-04	08:42:35	08:53:26	08:53:26:157	43	1	Reminder_NoThink_CSm	fixation	0	5	1000	0	0	1	995	1	+	-15	0	0	0	0	0	0
9	2023-04-04	08:42:35	08:53:31	08:53:31:175	43	2	Reminder_NoThink_CSm	NoThink_CSm	0	5	0	0	0	0	5000	1	+	-14	4	Cue2.jpg	-14	4	Target2.jpg	-14
9	2023-04-04	08:42:35	08:53:34	08:53:34:225	43	3	Reminder_NoThink_CSm	valence	0	5	0	0	11	0	3027	1	I found these images to be...	-16	0	0	0	0	0	0
9	2023-04-04	08:42:35	08:53:36	08:53:36:826	43	4	Reminder_NoThink_CSm	expectancy	0	1500	0	0	14	0	2561	1	When you saw the <b>object-scene</b>,   to what <b>degree (0-100%)</b> did you expect the <b>unpleasant sound to occur</b>?	-12	0	0	0	0	0	0
9	2023-04-04	08:42:35	08:53:39	08:53:39:325	44	1	Reminder_Objects_CSp	fixation	0	5	1000	0	0	1	995	1	+	-12	0	0	0	0	0	0
9	2023-04-04	08:42:35	08:53:44	08:53:44:344	44	2	Reminder_Objects_CSp	Objects_CSp	0	5	0	0	0	0	5000	2	Object3.jpg	-16	0	0	0	0	0	0
9	2023-04-04	08:42:35	08:53:46	08:53:46:926	44	3	Reminder_Objects_CSp	expectancy_object	0	1500	0	0	95	0	2533	1	When you saw the <b>object</b>,   to what <b>degree (0-100%)</b> did you expect the <b>unpleasant sound to occur</b>?	-16	0	0	0	0	0	0
9	2023-04-04	08:42:35	08:53:49	08:53:49:912	45	1	Reminder_NoThink_CSp	fixation	0	5	1500	0	0	1	1495	1	+	-8	0	0	0	0	0	0
9	2023-04-04	08:42:35	08:53:54	08:53:54:929	45	2	Reminder_NoThink_CSp	NoThink_CSp	0	5	0	0	0	0	5000	1	+	-16	1	Cue24.jpg	-16	1	Target24.jpg	-16
9	2023-04-04	08:42:35	08:53:57	08:53:57:793	45	3	Reminder_NoThink_CSp	valence	0	5	0	0	42	0	2836	1	I found these images to be...	-16	0	0	0	0	0	0
9	2023-04-04	08:42:35	08:54:00	08:54:00:594	45	4	Reminder_NoThink_CSp	expectancy	0	1000	0	0	94	0	2752	1	When you saw the <b>object-scene</b>,   to what <b>degree (0-100%)</b> did you expect the <b>unpleasant sound to occur</b>?	0	0	0	0	0	0	0
9	2023-04-04	08:42:35	08:54:02	08:54:02:097	46	1	Reminder_Think_CSp	fixation	0	5	500	0	0	1	495	1	+	-8	0	0	0	0	0	0
9	2023-04-04	08:42:35	08:54:07	08:54:07:113	46	2	Reminder_Think_CSp	Think_CSp	0	5	0	0	0	0	5000	1	+	-16	5	Cue23.jpg	-16	5	Target23.jpg	-16
9	2023-04-04	08:42:35	08:54:09	08:54:09:577	46	3	Reminder_Think_CSp	valence	0	5	0	0	33	0	2412	1	I found these images to be...	-16	0	0	0	0	0	0
9	2023-04-04	08:42:35	08:54:11	08:54:11:741	46	4	Reminder_Think_CSp	expectancy	0	500	0	0	94	0	2096	1	When you saw the <b>object-scene</b>,   to what <b>degree (0-100%)</b> did you expect the <b>unpleasant sound to occur</b>?	-7	0	0	0	0	0	0
9	2023-04-04	08:42:35	08:54:13	08:54:13:731	47	1	PracticeItems_Think	fixation	0	5	1500	0	0	1	1495	1	+	-8	0	0	0	0	0	0
9	2023-04-04	08:42:35	08:54:18	08:54:18:747	47	2	PracticeItems_Think	PracticeItems_Think	0	5	0	0	0	0	5000	1	+	-16	2	Cue38.jpg	-16	2	Target38.jpg	-16
9	2023-04-04	08:42:35	08:54:21	08:54:21:962	47	3	PracticeItems_Think	valence	0	5	0	0	31	0	3186	1	I found these images to be...	-16	0	0	0	0	0	0
9	2023-04-04	08:42:35	08:54:26	08:54:26:195	47	4	PracticeItems_Think	expectancy	0	1500	0	0	0	0	4184	1	When you saw the <b>object-scene</b>,   to what <b>degree (0-100%)</b> did you expect the <b>unpleasant sound to occur</b>?	0	0	0	0	0	0	0
9	2023-04-04	08:42:35	08:54:28	08:54:28:198	48	1	Reminder_Objects_CSm	fixation	0	5	500	0	0	1	495	1	+	-8	0	0	0	0	0	0
9	2023-04-04	08:42:35	08:54:33	08:54:33:214	48	2	Reminder_Objects_CSm	Objects_CSm	0	5	0	0	0	0	5000	4	Object4.jpg	-16	0	0	0	0	0	0
9	2023-04-04	08:42:35	08:54:38	08:54:38:196	48	3	Reminder_Objects_CSm	expectancy_object	0	1000	0	0	0	0	4958	1	When you saw the <b>object</b>,   to what <b>degree (0-100%)</b> did you expect the <b>unpleasant sound to occur</b>?	-16	0	0	0	0	0	0
9	2023-04-04	08:42:35	08:54:40	08:54:40:198	49	1	Reminder_Baseline_CSp	fixation	0	5	1000	0	0	1	995	1	+	-8	0	0	0	0	0	0
9	2023-04-04	08:42:35	08:54:45	08:54:45:216	49	2	Reminder_Baseline_CSp	Baseline_CSp	0	5	0	0	0	0	5000	1	+	-16	3	Cue29.jpg	-16	3	Target29.jpg	-16
9	2023-04-04	08:42:35	08:54:48	08:54:48:413	49	3	Reminder_Baseline_CSp	valence	0	5	0	0	40	0	3173	1	I found these images to be...	-16	0	0	0	0	0	0
9	2023-04-04	08:42:35	08:54:51	08:54:51:613	49	4	Reminder_Baseline_CSp	expectancy	0	1500	0	0	90	0	3132	1	When you saw the <b>object-scene</b>,   to what <b>degree (0-100%)</b> did you expect the <b>unpleasant sound to occur</b>?	0	0	0	0	0	0	0
9	2023-04-04	08:42:35	08:58:32	08:58:32:501	2	1	Practice_NoThink	fixation	0	5	500	0	0	1	495	1	+	-8	0	0	0	0	0	0
9	2023-04-04	08:42:35	08:58:33	08:58:33:519	2	2	Practice_NoThink	NoThink	0	5	0	0	0	0	1000	1	DON'T THINK	-16	0	0	0	0	0	0
9	2023-04-04	08:42:35	08:58:38	08:58:38:536	2	3	Practice_NoThink	NoThinkCue	0	5	0	0	0	1	5000	1	Cue39.jpg	-16	0	0	0	0	0	0
9	2023-04-04	08:42:35	08:58:40	08:58:40:853	2	4	Practice_NoThink	Intrusion	0	500	3000	0	80	1	1283	1	How <b>often</b> did you <b>think</b> about the <b>scene</b>?   <center><br><b>NEVER (1)    BRIEFLY (2)   OFTEN (3) </b>	-14	0	0	0	0	0	0
9	2023-04-04	08:42:35	08:58:43	08:58:43:040	3	1	Practice_Think	fixation	0	5	1500	0	0	1	1495	1	+	-16	0	0	0	0	0	0
9	2023-04-04	08:42:35	08:58:44	08:58:44:053	3	2	Practice_Think	Think	0	5	0	0	0	0	1000	1	THINK	-16	0	0	0	0	0	0
9	2023-04-04	08:42:35	08:58:49	08:58:49:070	3	3	Practice_Think	ThinkCue	0	5	0	0	0	1	5000	2	Cue38.jpg	-16	0	0	0	0	0	0
9	2023-04-04	08:42:35	08:58:51	08:58:51:076	3	4	Practice_Think	Intrusion	0	1000	3000	0	0	0	2000	1	How <b>often</b> did you <b>think</b> about the <b>scene</b>?   <center><br><b>NEVER (1)    BRIEFLY (2)   OFTEN (3) </b>	-16	0	0	0	0	0	0
9	2023-04-04	08:42:35	08:58:53	08:58:53:074	4	1	Practice_Think	fixation	0	5	1000	0	0	1	995	1	+	-16	0	0	0	0	0	0
9	2023-04-04	08:42:35	08:58:54	08:58:54:087	4	2	Practice_Think	Think	0	5	0	0	0	0	1000	1	THINK	-16	0	0	0	0	0	0
9	2023-04-04	08:42:35	08:58:59	08:58:59:103	4	3	Practice_Think	ThinkCue	0	5	0	0	0	1	5000	1	Cue37.jpg	-16	0	0	0	0	0	0
9	2023-04-04	08:42:35	08:59:01	08:59:01:611	4	4	Practice_Think	Intrusion	0	1500	3000	0	0	0	1500	1	How <b>often</b> did you <b>think</b> about the <b>scene</b>?   <center><br><b>NEVER (1)    BRIEFLY (2)   OFTEN (3) </b>	-16	0	0	0	0	0	0
9	2023-04-04	08:42:35	08:59:03	08:59:03:107	5	1	Practice_NoThink	fixation	0	5	1000	0	0	1	995	1	+	-8	0	0	0	0	0	0
9	2023-04-04	08:42:35	08:59:04	08:59:04:121	5	2	Practice_NoThink	NoThink	0	5	0	0	0	0	1000	1	DON'T THINK	-16	0	0	0	0	0	0
9	2023-04-04	08:42:35	08:59:09	08:59:09:138	5	3	Practice_NoThink	NoThinkCue	0	5	0	0	0	1	5000	2	Cue40.jpg	-16	0	0	0	0	0	0
9	2023-04-04	08:42:35	08:59:10	08:59:10:709	5	4	Practice_NoThink	Intrusion	0	500	3000	0	80	1	554	1	How <b>often</b> did you <b>think</b> about the <b>scene</b>?   <center><br><b>NEVER (1)    BRIEFLY (2)   OFTEN (3) </b>	-16	0	0	0	0	0	0
9	2023-04-04	08:42:35	09:02:21	09:02:21:501	6	1	Practice_Betweenblocks1	Practice_Betweenblocks1	0	5	0	0	57	1	189329	1	<center><br><br><br><br>This is the end of the first practice round. <br><br>There will be 2 more practice rounds.  <br><br> Please await further instruction from the experimenter.	-16	0	0	0	0	0	0
9	2023-04-04	08:42:35	09:02:23	09:02:23:03	7	1	Practice_NoThink	fixation	0	5	1500	0	0	1	1495	1	+	-9	0	0	0	0	0	0
9	2023-04-04	08:42:35	09:02:24	09:02:24:016	7	2	Practice_NoThink	NoThink	0	5	0	0	0	0	1000	1	DON'T THINK	-16	0	0	0	0	0	0
9	2023-04-04	08:42:35	09:02:29	09:02:29:033	7	3	Practice_NoThink	NoThinkCue	0	5	0	0	0	1	5000	1	Cue39.jpg	-16	0	0	0	0	0	0
9	2023-04-04	08:42:35	09:02:30	09:02:30:837	7	4	Practice_NoThink	Intrusion	0	1000	3000	0	80	1	786	1	How <b>often</b> did you <b>think</b> about the <b>scene</b>?   <center><br><b>NEVER (1)    BRIEFLY (2)   OFTEN (3) </b>	-16	0	0	0	0	0	0
9	2023-04-04	08:42:35	09:02:32	09:02:32:537	8	1	Practice_Think	fixation	0	5	500	0	0	1	495	1	+	0	0	0	0	0	0	0
9	2023-04-04	08:42:35	09:02:33	09:02:33:550	8	2	Practice_Think	Think	0	5	0	0	0	0	1000	1	THINK	-16	0	0	0	0	0	0
9	2023-04-04	08:42:35	09:02:38	09:02:38:567	8	3	Practice_Think	ThinkCue	0	5	0	0	0	1	5000	2	Cue38.jpg	-16	0	0	0	0	0	0
9	2023-04-04	08:42:35	09:02:40	09:02:40:837	8	4	Practice_Think	Intrusion	0	1500	3000	0	81	1	1252	1	How <b>often</b> did you <b>think</b> about the <b>scene</b>?   <center><br><b>NEVER (1)    BRIEFLY (2)   OFTEN (3) </b>	-16	0	0	0	0	0	0
9	2023-04-04	08:42:35	09:02:42	09:02:42:071	9	1	Practice_Think	fixation	0	5	500	0	0	1	495	1	+	-8	0	0	0	0	0	0
9	2023-04-04	08:42:35	09:02:43	09:02:43:084	9	2	Practice_Think	Think	0	5	0	0	0	0	1000	1	THINK	-16	0	0	0	0	0	0
9	2023-04-04	08:42:35	09:02:48	09:02:48:101	9	3	Practice_Think	ThinkCue	0	5	0	0	0	1	5000	1	Cue37.jpg	-16	0	0	0	0	0	0
9	2023-04-04	08:42:35	09:02:49	09:02:49:277	9	4	Practice_Think	Intrusion	0	500	3000	0	81	1	1158	1	How <b>often</b> did you <b>think</b> about the <b>scene</b>?   <center><br><b>NEVER (1)    BRIEFLY (2)   OFTEN (3) </b>	-16	0	0	0	0	0	0
9	2023-04-04	08:42:35	09:02:52	09:02:52:105	10	1	Practice_NoThink	fixation	0	5	1000	0	0	1	995	1	+	-8	0	0	0	0	0	0
9	2023-04-04	08:42:35	09:02:53	09:02:53:118	10	2	Practice_NoThink	NoThink	0	5	0	0	0	0	1000	1	DON'T THINK	-16	0	0	0	0	0	0
9	2023-04-04	08:42:35	09:02:58	09:02:58:135	10	3	Practice_NoThink	NoThinkCue	0	5	0	0	0	1	5000	2	Cue40.jpg	-16	0	0	0	0	0	0
9	2023-04-04	08:42:35	09:02:59	09:02:59:341	10	4	Practice_NoThink	Intrusion	0	1500	3000	0	80	1	1189	1	How <b>often</b> did you <b>think</b> about the <b>scene</b>?   <center><br><b>NEVER (1)    BRIEFLY (2)   OFTEN (3) </b>	-16	0	0	0	0	0	0
9	2023-04-04	08:42:35	09:04:16	09:04:16:173	11	1	Practice_Betweenblocks2	Practice_Betweenblocks2	0	5	0	0	57	1	74987	1	<center><br><br><br><br>This is the end of the second practice round. <br><br>There will be 1 more practice round.  <br><br> Please await further instruction from the experimenter.	-8	0	0	0	0	0	0
9	2023-04-04	08:42:35	09:04:18	09:04:18:674	12	1	Practice_NoThink	fixation	0	5	1500	0	0	1	1495	1	+	-8	0	0	0	0	0	0
9	2023-04-04	08:42:35	09:04:19	09:04:19:690	12	2	Practice_NoThink	NoThink	0	5	0	0	0	0	1000	1	DON'T THINK	-16	0	0	0	0	0	0
9	2023-04-04	08:42:35	09:04:24	09:04:24:707	12	3	Practice_NoThink	NoThinkCue	0	5	0	0	0	1	5000	1	Cue39.jpg	-16	0	0	0	0	0	0
9	2023-04-04	08:42:35	09:04:25	09:04:25:637	12	4	Practice_NoThink	Intrusion	0	1000	3000	0	79	1	912	1	How <b>often</b> did you <b>think</b> about the <b>scene</b>?   <center><br><b>NEVER (1)    BRIEFLY (2)   OFTEN (3) </b>	-16	0	0	0	0	0	0
9	2023-04-04	08:42:35	09:04:28	09:04:28:211	13	1	Practice_Think	fixation	0	5	1500	0	0	1	1495	1	+	-9	0	0	0	0	0	0
9	2023-04-04	08:42:35	09:04:29	09:04:29:224	13	2	Practice_Think	Think	0	5	0	0	0	0	1000	1	THINK	-16	0	0	0	0	0	0
9	2023-04-04	08:42:35	09:04:34	09:04:34:241	13	3	Practice_Think	ThinkCue	0	5	0	0	0	1	5000	2	Cue38.jpg	-16	0	0	0	0	0	0
9	2023-04-04	08:42:35	09:04:35	09:04:35:669	13	4	Practice_Think	Intrusion	0	1500	3000	0	81	1	410	1	How <b>often</b> did you <b>think</b> about the <b>scene</b>?   <center><br><b>NEVER (1)    BRIEFLY (2)   OFTEN (3) </b>	-16	0	0	0	0	0	0
9	2023-04-04	08:42:35	09:04:38	09:04:38:745	14	1	Practice_NoThink	fixation	0	5	500	0	0	1	495	1	+	-8	0	0	0	0	0	0
9	2023-04-04	08:42:35	09:04:39	09:04:39:758	14	2	Practice_NoThink	NoThink	0	5	0	0	0	0	1000	1	DON'T THINK	-16	0	0	0	0	0	0
9	2023-04-04	08:42:35	09:04:44	09:04:44:775	14	3	Practice_NoThink	NoThinkCue	0	5	0	0	0	1	5000	2	Cue40.jpg	-16	0	0	0	0	0	0
9	2023-04-04	08:42:35	09:04:45	09:04:45:957	14	4	Practice_NoThink	Intrusion	0	1000	3000	0	80	1	1165	1	How <b>often</b> did you <b>think</b> about the <b>scene</b>?   <center><br><b>NEVER (1)    BRIEFLY (2)   OFTEN (3) </b>	-16	0	0	0	0	0	0
9	2023-04-04	08:42:35	09:04:48	09:04:48:779	15	1	Practice_Think	fixation	0	5	1000	0	0	1	995	1	+	-16	0	0	0	0	0	0
9	2023-04-04	08:42:35	09:04:49	09:04:49:792	15	2	Practice_Think	Think	0	5	0	0	0	0	1000	1	THINK	-16	0	0	0	0	0	0
9	2023-04-04	08:42:35	09:04:54	09:04:54:808	15	3	Practice_Think	ThinkCue	0	5	0	0	0	1	5000	1	Cue37.jpg	-16	0	0	0	0	0	0
9	2023-04-04	08:42:35	09:04:55	09:04:55:037	15	4	Practice_Think	Intrusion	0	500	3000	0	81	1	1211	1	How <b>often</b> did you <b>think</b> about the <b>scene</b>?   <center><br><b>NEVER (1)    BRIEFLY (2)   OFTEN (3) </b>	-16	0	0	0	0	0	0
9	2023-04-04	08:42:35	09:05:44	09:05:44:04	2	1	TNT_Think_CSp	fixation	0	5	1000	0	0	1	995	1	+	-8	0	0	0	0	0	0
9	2023-04-04	08:42:35	09:05:45	09:05:45:018	2	2	TNT_Think_CSp	Think	0	5	0	0	0	0	1000	1	THINK	-16	0	0	0	0	0	0
9	2023-04-04	08:42:35	09:05:50	09:05:50:035	2	3	TNT_Think_CSp	TNT_Think_CSp	0	5	0	0	0	0	5000	1	Cue34.jpg	-16	0	0	0	0	0	0
9	2023-04-04	08:42:35	09:05:50	09:05:50:636	2	4	TNT_Think_CSp	Intrusion	0	500	3000	0	81	1	583	1	How <b>often</b> did you <b>think</b> about the <b>scene</b>?   <center><br><b>NEVER (1)    BRIEFLY (2)   OFTEN (3) </b>	-16	0	0	0	0	0	0
9	2023-04-04	08:42:35	09:05:54	09:05:54:539	3	1	TNT_NoThink_CSp	fixation	0	5	1500	0	0	1	1495	1	+	-8	0	0	0	0	0	0
9	2023-04-04	08:42:35	09:05:55	09:05:55:552	3	2	TNT_NoThink_CSp	NoThink	0	5	0	0	0	0	1000	1	DON'T THINK	-16	0	0	0	0	0	0
9	2023-04-04	08:42:35	09:06:00	09:06:00:569	3	3	TNT_NoThink_CSp	TNT_NoThink_CSp	0	5	0	0	0	0	5000	5	Cue30.jpg	-16	0	0	0	0	0	0
9	2023-04-04	08:42:35	09:06:01	09:06:01:228	3	4	TNT_NoThink_CSp	Intrusion	0	1500	3000	0	80	1	642	1	How <b>often</b> did you <b>think</b> about the <b>scene</b>?   <center><br><b>NEVER (1)    BRIEFLY (2)   OFTEN (3) </b>	-16	0	0	0	0	0	0
9	2023-04-04	08:42:35	09:06:04	09:06:04:085	4	1	TNT_Object_CSm	fixation	0	5	500	0	0	1	495	1	+	-9	0	0	0	0	0	0
9	2023-04-04	08:42:35	09:06:05	09:06:05:103	4	2	TNT_Object_CSm	Passive	0	5	0	0	0	0	1000	1	VIEW	-16	0	0	0	0	0	0
9	2023-04-04	08:42:35	09:06:10	09:06:10:119	4	3	TNT_Object_CSm	TNT_Object_CSm	0	1500	0	0	0	0	5000	3	Object8.jpg	-16	0	0	0	0	0	0
9	2023-04-04	08:42:35	09:06:12	09:06:12:619	5	1	TNT_NoThink_CSp	fixation	0	5	1000	0	0	1	995	1	+	-9	0	0	0	0	0	0
9	2023-04-04	08:42:35	09:06:13	09:06:13:637	5	2	TNT_NoThink_CSp	NoThink	0	5	0	0	0	0	1000	1	DON'T THINK	-16	0	0	0	0	0	0
9	2023-04-04	08:42:35	09:06:18	09:06:18:653	5	3	TNT_NoThink_CSp	TNT_NoThink_CSp	0	5	0	0	0	0	5000	4	Cue9.jpg	-16	0	0	0	0	0	0
9	2023-04-04	08:42:35	09:06:20	09:06:20:948	5	4	TNT_NoThink_CSp	Intrusion	0	1000	3000	0	80	1	1278	1	How <b>often</b> did you <b>think</b> about the <b>scene</b>?   <center><br><b>NEVER (1)    BRIEFLY (2)   OFTEN (3) </b>	-16	0	0	0	0	0	0
9	2023-04-04	08:42:35	09:06:22	09:06:22:158	6	1	TNT_Think_CSm	fixation	0	5	500	0	0	1	495	1	+	-16	0	0	0	0	0	0
9	2023-04-04	08:42:35	09:06:23	09:06:23:170	6	2	TNT_Think_CSm	Think	0	5	0	0	0	0	1000	1	THINK	-16	0	0	0	0	0	0
9	2023-04-04	08:42:35	09:06:28	09:06:28:187	6	3	TNT_Think_CSm	TNT_Think_CSm	0	5	0	0	0	0	5000	1	Cue19.jpg	-16	0	0	0	0	0	0
9	2023-04-04	08:42:35	09:06:29	09:06:29:695	6	4	TNT_Think_CSm	Intrusion	0	1500	3000	0	0	0	1500	1	How <b>often</b> did you <b>think</b> about the <b>scene</b>?   <center><br><b>NEVER (1)    BRIEFLY (2)   OFTEN (3) </b>	-16	0	0	0	0	0	0
9	2023-04-04	08:42:35	09:06:32	09:06:32:691	7	1	TNT_Think_CSm	fixation	0	5	1500	0	0	1	1495	1	+	-7	0	0	0	0	0	0
9	2023-04-04	08:42:35	09:06:33	09:06:33:705	7	2	TNT_Think_CSm	Think	0	5	0	0	0	0	1000	1	THINK	-16	0	0	0	0	0	0
9	2023-04-04	08:42:35	09:06:38	09:06:38:721	7	3	TNT_Think_CSm	TNT_Think_CSm	0	5	0	0	0	0	5000	5	Cue15.jpg	-16	0	0	0	0	0	0
9	2023-04-04	08:42:35	09:06:39	09:06:39:468	7	4	TNT_Think_CSm	Intrusion	0	500	3000	0	81	1	729	1	How <b>often</b> did you <b>think</b> about the <b>scene</b>?   <center><br><b>NEVER (1)    BRIEFLY (2)   OFTEN (3) </b>	-16	0	0	0	0	0	0
9	2023-04-04	08:42:35	09:06:43	09:06:43:226	8	1	TNT_NoThink_CSm	fixation	0	5	1500	0	0	1	1495	1	+	-16	0	0	0	0	0	0
9	2023-04-04	08:42:35	09:06:44	09:06:44:239	8	2	TNT_NoThink_CSm	NoThink	0	5	0	0	0	0	1000	1	DON'T THINK	-16	0	0	0	0	0	0
9	2023-04-04	08:42:35	09:06:49	09:06:49:255	8	3	TNT_NoThink_CSm	TNT_NoThink_CSm	0	5	0	0	0	0	5000	3	Cue31.jpg	-16	0	0	0	0	0	0
9	2023-04-04	08:42:35	09:06:50	09:06:50:188	8	4	TNT_NoThink_CSm	Intrusion	0	1000	3000	0	80	1	916	1	How <b>often</b> did you <b>think</b> about the <b>scene</b>?   <center><br><b>NEVER (1)    BRIEFLY (2)   OFTEN (3) </b>	-16	0	0	0	0	0	0
9	2023-04-04	08:42:35	09:06:52	09:06:52:759	9	1	TNT_Think_CSp	fixation	0	5	500	0	0	1	495	1	+	-8	0	0	0	0	0	0
9	2023-04-04	08:42:35	09:06:53	09:06:53:772	9	2	TNT_Think_CSp	Think	0	5	0	0	0	0	1000	1	THINK	-16	0	0	0	0	0	0
9	2023-04-04	08:42:35	09:06:58	09:06:58:789	9	3	TNT_Think_CSp	TNT_Think_CSp	0	5	0	0	0	0	5000	2	Cue13.jpg	-16	0	0	0	0	0	0
9	2023-04-04	08:42:35	09:07:00	09:07:00:108	9	4	TNT_Think_CSp	Intrusion	0	500	3000	0	81	1	1302	1	How <b>often</b> did you <b>think</b> about the <b>scene</b>?   <center><br><b>NEVER (1)    BRIEFLY (2)   OFTEN (3) </b>	-16	0	0	0	0	0	0
9	2023-04-04	08:42:35	09:07:02	09:07:02:793	10	1	TNT_NoThink_CSm	fixation	0	5	1000	0	0	1	995	1	+	-7	0	0	0	0	0	0
9	2023-04-04	08:42:35	09:07:04	09:07:04:807	10	2	TNT_NoThink_CSm	NoThink	0	5	0	0	0	0	1000	1	DON'T THINK	-16	0	0	0	0	0	0
9	2023-04-04	08:42:35	09:07:09	09:07:09:823	10	3	TNT_NoThink_CSm	TNT_NoThink_CSm	0	5	0	0	0	0	5000	6	Cue11.jpg	-16	0	0	0	0	0	0
9	2023-04-04	08:42:35	09:07:09	09:07:09:388	10	4	TNT_NoThink_CSm	Intrusion	0	1000	3000	0	80	1	548	1	How <b>often</b> did you <b>think</b> about the <b>scene</b>?   <center><br><b>NEVER (1)    BRIEFLY (2)   OFTEN (3) </b>	-16	0	0	0	0	0	0
9	2023-04-04	08:42:35	09:07:13	09:07:13:327	11	1	TNT_Think_CSp	fixation	0	5	1500	0	0	1	1495	1	+	-16	0	0	0	0	0	0
9	2023-04-04	08:42:35	09:07:14	09:07:14:340	11	2	TNT_Think_CSp	Think	0	5	0	0	0	0	1000	1	THINK	-16	0	0	0	0	0	0
9	2023-04-04	08:42:35	09:07:19	09:07:19:357	11	3	TNT_Think_CSp	TNT_Think_CSp	0	5	0	0	0	0	5000	6	Cue14.jpg	-16	0	0	0	0	0	0
9	2023-04-04	08:42:35	09:07:20	09:07:20:348	11	4	TNT_Think_CSp	Intrusion	0	1500	3000	0	81	1	973	1	How <b>often</b> did you <b>think</b> about the <b>scene</b>?   <center><br><b>NEVER (1)    BRIEFLY (2)   OFTEN (3) </b>	-16	0	0	0	0	0	0
9	2023-04-04	08:42:35	09:07:23	09:07:23:361	12	1	TNT_Think_CSp	fixation	0	5	1000	0	0	1	995	1	+	-8	0	0	0	0	0	0
9	2023-04-04	08:42:35	09:07:24	09:07:24:374	12	2	TNT_Think_CSp	Think	0	5	0	0	0	0	1000	1	THINK	-16	0	0	0	0	0	0
9	2023-04-04	08:42:35	09:07:29	09:07:29:391	12	3	TNT_Think_CSp	TNT_Think_CSp	0	5	0	0	0	0	5000	3	Cue8.jpg	-16	0	0	0	0	0	0
9	2023-04-04	08:42:35	09:07:30	09:07:30:124	12	4	TNT_Think_CSp	Intrusion	0	1500	3000	0	81	1	716	1	How <b>often</b> did you <b>think</b> about the <b>scene</b>?   <center><br><b>NEVER (1)    BRIEFLY (2)   OFTEN (3) </b>	-16	0	0	0	0	0	0
9	2023-04-04	08:42:35	09:07:33	09:07:33:895	13	1	TNT_NoThink_CSm	fixation	0	5	500	0	0	1	495	1	+	-8	0	0	0	0	0	0
9	2023-04-04	08:42:35	09:07:34	09:07:34:909	13	2	TNT_NoThink_CSm	NoThink	0	5	0	0	0	0	1000	1	DON'T THINK	-16	0	0	0	0	0	0
9	2023-04-04	08:42:35	09:07:39	09:07:39:925	13	3	TNT_NoThink_CSm	TNT_NoThink_CSm	0	5	0	0	0	0	5000	5	Cue16.jpg	-16	0	0	0	0	0	0
9	2023-04-04	08:42:35	09:07:39	09:07:39:788	13	4	TNT_NoThink_CSm	Intrusion	0	1000	3000	0	80	1	846	1	How <b>often</b> did you <b>think</b> about the <b>scene</b>?   <center><br><b>NEVER (1)    BRIEFLY (2)   OFTEN (3) </b>	-16	0	0	0	0	0	0
9	2023-04-04	08:42:35	09:07:42	09:07:42:429	14	1	TNT_Object_CSm	fixation	0	5	500	0	0	1	495	1	+	-9	0	0	0	0	0	0
9	2023-04-04	08:42:35	09:07:43	09:07:43:442	14	2	TNT_Object_CSm	Passive	0	5	0	0	0	0	1000	1	VIEW	-16	0	0	0	0	0	0
9	2023-04-04	08:42:35	09:07:48	09:07:48:459	14	3	TNT_Object_CSm	TNT_Object_CSm	0	1000	0	0	0	0	5000	2	Object6.jpg	-16	0	0	0	0	0	0
9	2023-04-04	08:42:35	09:07:50	09:07:50:458	15	1	TNT_NoThink_CSm	fixation	0	5	1000	0	0	1	995	1	+	-9	0	0	0	0	0	0
9	2023-04-04	08:42:35	09:07:51	09:07:51:476	15	2	TNT_NoThink_CSm	NoThink	0	5	0	0	0	0	1000	1	DON'T THINK	-16	0	0	0	0	0	0
9	2023-04-04	08:42:35	09:07:56	09:07:56:493	15	3	TNT_NoThink_CSm	TNT_NoThink_CSm	0	5	0	0	0	0	5000	1	Cue7.jpg	-16	0	0	0	0	0	0
9	2023-04-04	08:42:35	09:07:57	09:07:57:100	15	4	TNT_NoThink_CSm	Intrusion	0	500	3000	0	80	1	590	1	How <b>often</b> did you <b>think</b> about the <b>scene</b>?   <center><br><b>NEVER (1)    BRIEFLY (2)   OFTEN (3) </b>	-16	0	0	0	0	0	0
9	2023-04-04	08:42:35	09:08:01	09:08:01:997	16	1	TNT_NoThink_CSp	fixation	0	5	1500	0	0	1	1495	1	+	-8	0	0	0	0	0	0
9	2023-04-04	08:42:35	09:08:02	09:08:02:010	16	2	TNT_NoThink_CSp	NoThink	0	5	0	0	0	0	1000	1	DON'T THINK	-16	0	0	0	0	0	0
9	2023-04-04	08:42:35	09:08:07	09:08:07:027	16	3	TNT_NoThink_CSp	TNT_NoThink_CSp	0	5	0	0	0	0	5000	2	Cue33.jpg	-16	0	0	0	0	0	0
9	2023-04-04	08:42:35	09:08:08	09:08:08:700	16	4	TNT_NoThink_CSp	Intrusion	0	500	3000	0	79	1	1657	1	How <b>often</b> did you <b>think</b> about the <b>scene</b>?   <center><br><b>NEVER (1)    BRIEFLY (2)   OFTEN (3) </b>	-16	0	0	0	0	0	0
9	2023-04-04	08:42:35	09:08:11	09:08:11:531	17	1	TNT_Think_CSm	fixation	0	5	1500	0	0	1	1495	1	+	-9	0	0	0	0	0	0
9	2023-04-04	08:42:35	09:08:12	09:08:12:544	17	2	TNT_Think_CSm	Think	0	5	0	0	0	0	1000	1	THINK	-16	0	0	0	0	0	0
9	2023-04-04	08:42:35	09:08:17	09:08:17:561	17	3	TNT_Think_CSm	TNT_Think_CSm	0	5	0	0	0	0	5000	4	Cue36.jpg	-16	0	0	0	0	0	0
9	2023-04-04	08:42:35	09:08:18	09:08:18:268	17	4	TNT_Think_CSm	Intrusion	0	1500	3000	0	81	1	690	1	How <b>often</b> did you <b>think</b> about the <b>scene</b>?   <center><br><b>NEVER (1)    BRIEFLY (2)   OFTEN (3) </b>	-16	0	0	0	0	0	0
9	2023-04-04	08:42:35	09:08:21	09:08:21:064	18	1	TNT_Think_CSm	fixation	0	5	500	0	0	1	495	1	+	-9	0	0	0	0	0	0
9	2023-04-04	08:42:35	09:08:22	09:08:22:077	18	2	TNT_Think_CSm	Think	0	5	0	0	0	0	1000	1	THINK	-16	0	0	0	0	0	0
9	2023-04-04	08:42:35	09:08:27	09:08:27:094	18	3	TNT_Think_CSm	TNT_Think_CSm	0	5	0	0	0	0	5000	2	Cue3.jpg	-16	0	0	0	0	0	0
9	2023-04-04	08:42:35	09:08:28	09:08:28:852	18	4	TNT_Think_CSm	Intrusion	0	1000	3000	0	81	1	741	1	How <b>often</b> did you <b>think</b> about the <b>scene</b>?   <center><br><b>NEVER (1)    BRIEFLY (2)   OFTEN (3) </b>	-16	0	0	0	0	0	0
9	2023-04-04	08:42:35	09:08:31	09:08:31:098	19	1	TNT_Object_CSp	fixation	0	5	1000	0	0	1	995	1	+	-8	0	0	0	0	0	0
9	2023-04-04	08:42:35	09:08:32	09:08:32:112	19	2	TNT_Object_CSp	Passive	0	5	0	0	0	0	1000	1	VIEW	-16	0	0	0	0	0	0
9	2023-04-04	08:42:35	09:08:37	09:08:37:129	19	3	TNT_Object_CSp	TNT_Object_CSp	0	1500	0	0	0	0	5000	1	Object2.jpg	-16	0	0	0	0	0	0
9	2023-04-04	08:42:35	09:08:39	09:08:39:128	20	1	TNT_NoThink_CSp	fixation	0	5	500	0	0	1	495	1	+	-8	0	0	0	0	0	0
9	2023-04-04	08:42:35	09:08:40	09:08:40:146	20	2	TNT_NoThink_CSp	NoThink	0	5	0	0	0	0	1000	1	DON'T THINK	-16	0	0	0	0	0	0
9	2023-04-04	08:42:35	09:08:45	09:08:45:162	20	3	TNT_NoThink_CSp	TNT_NoThink_CSp	0	5	0	0	0	0	5000	6	Cue28.jpg	-16	0	0	0	0	0	0
9	2023-04-04	08:42:35	09:08:47	09:08:47:04	20	4	TNT_NoThink_CSp	Intrusion	0	1000	3000	0	80	1	1825	1	How <b>often</b> did you <b>think</b> about the <b>scene</b>?   <center><br><b>NEVER (1)    BRIEFLY (2)   OFTEN (3) </b>	-16	0	0	0	0	0	0
9	2023-04-04	08:42:35	09:08:49	09:08:49:167	21	1	TNT_Think_CSm	fixation	0	5	1000	0	0	1	995	1	+	-16	0	0	0	0	0	0
9	2023-04-04	08:42:35	09:08:50	09:08:50:179	21	2	TNT_Think_CSm	Think	0	5	0	0	0	0	1000	1	THINK	-16	0	0	0	0	0	0
9	2023-04-04	08:42:35	09:08:55	09:08:55:196	21	3	TNT_Think_CSm	TNT_Think_CSm	0	5	0	0	0	0	5000	3	Cue12.jpg	-16	0	0	0	0	0	0
9	2023-04-04	08:42:35	09:08:56	09:08:56:028	21	4	TNT_Think_CSm	Intrusion	0	1500	3000	0	81	1	815	1	How <b>often</b> did you <b>think</b> about the <b>scene</b>?   <center><br><b>NEVER (1)    BRIEFLY (2)   OFTEN (3) </b>	-16	0	0	0	0	0	0
9	2023-04-04	08:42:35	09:08:59	09:08:59:701	22	1	TNT_Think_CSm	fixation	0	5	1500	0	0	1	1495	1	+	-16	0	0	0	0	0	0
9	2023-04-04	08:42:35	09:09:00	09:09:00:713	22	2	TNT_Think_CSm	Think	0	5	0	0	0	0	1000	1	THINK	-16	0	0	0	0	0	0
9	2023-04-04	08:42:35	09:09:05	09:09:05:730	22	3	TNT_Think_CSm	TNT_Think_CSm	0	5	0	0	0	0	5000	6	Cue5.jpg	-16	0	0	0	0	0	0
9	2023-04-04	08:42:35	09:09:06	09:09:06:252	22	4	TNT_Think_CSm	Intrusion	0	500	3000	0	81	1	505	1	How <b>often</b> did you <b>think</b> about the <b>scene</b>?   <center><br><b>NEVER (1)    BRIEFLY (2)   OFTEN (3) </b>	-16	0	0	0	0	0	0
9	2023-04-04	08:42:35	09:09:10	09:09:10:234	23	1	TNT_NoThink_CSp	fixation	0	5	1500	0	0	1	1495	1	+	-8	0	0	0	0	0	0
9	2023-04-04	08:42:35	09:09:11	09:09:11:247	23	2	TNT_NoThink_CSp	NoThink	0	5	0	0	0	0	1000	1	DON'T THINK	-16	0	0	0	0	0	0
9	2023-04-04	08:42:35	09:09:16	09:09:16:264	23	3	TNT_NoThink_CSp	TNT_NoThink_CSp	0	5	0	0	0	0	5000	3	Cue32.jpg	-16	0	0	0	0	0	0
9	2023-04-04	08:42:35	09:09:17	09:09:17:180	23	4	TNT_NoThink_CSp	Intrusion	0	1000	3000	0	80	1	899	1	How <b>often</b> did you <b>think</b> about the <b>scene</b>?   <center><br><b>NEVER (1)    BRIEFLY (2)   OFTEN (3) </b>	-16	0	0	0	0	0	0
9	2023-04-04	08:42:35	09:09:20	09:09:20:268	24	1	TNT_NoThink_CSm	fixation	0	5	1000	0	0	1	995	1	+	-8	0	0	0	0	0	0
9	2023-04-04	08:42:35	09:09:21	09:09:21:282	24	2	TNT_NoThink_CSm	NoThink	0	5	0	0	0	0	1000	1	DON'T THINK	-16	0	0	0	0	0	0
9	2023-04-04	08:42:35	09:09:26	09:09:26:298	24	3	TNT_NoThink_CSm	TNT_NoThink_CSm	0	5	0	0	0	0	5000	2	Cue20.jpg	-16	0	0	0	0	0	0
9	2023-04-04	08:42:35	09:09:27	09:09:27:340	24	4	TNT_NoThink_CSm	Intrusion	0	1500	3000	0	80	1	1025	1	How <b>often</b> did you <b>think</b> about the <b>scene</b>?   <center><br><b>NEVER (1)    BRIEFLY (2)   OFTEN (3) </b>	-16	0	0	0	0	0	0
9	2023-04-04	08:42:35	09:09:29	09:09:29:802	25	1	TNT_Object_CSm	fixation	0	5	500	0	0	1	495	1	+	-8	0	0	0	0	0	0
9	2023-04-04	08:42:35	09:09:31	09:09:31:815	25	2	TNT_Object_CSm	Passive	0	5	0	0	0	0	1000	1	VIEW	-16	0	0	0	0	0	0
9	2023-04-04	08:42:35	09:09:36	09:09:36:832	25	3	TNT_Object_CSm	TNT_Object_CSm	0	500	0	0	0	0	5000	4	Object4.jpg	-16	0	0	0	0	0	0
9	2023-04-04	08:42:35	09:09:37	09:09:37:330	26	1	TNT_Object_CSm	fixation	0	5	1000	0	0	1	995	1	+	-8	0	0	0	0	0	0
9	2023-04-04	08:42:35	09:09:38	09:09:38:349	26	2	TNT_Object_CSm	Passive	0	5	0	0	0	0	1000	1	VIEW	-16	0	0	0	0	0	0
9	2023-04-04	08:42:35	09:09:43	09:09:43:366	26	3	TNT_Object_CSm	TNT_Object_CSm	0	1000	0	0	0	0	5000	1	Object7.jpg	-16	0	0	0	0	0	0
9	2023-04-04	08:42:35	09:09:46	09:09:46:865	27	1	TNT_Think_CSp	fixation	0	5	1500	0	0	1	1495	1	+	-9	0	0	0	0	0	0
9	2023-04-04	08:42:35	09:09:47	09:09:47:883	27	2	TNT_Think_CSp	Think	0	5	0	0	0	0	1000	1	THINK	-16	0	0	0	0	0	0
9	2023-04-04	08:42:35	09:09:52	09:09:52:900	27	3	TNT_Think_CSp	TNT_Think_CSp	0	5	0	0	0	0	5000	5	Cue23.jpg	-16	0	0	0	0	0	0
9	2023-04-04	08:42:35	09:09:52	09:09:52:349	27	4	TNT_Think_CSp	Intrusion	0	500	3000	0	81	1	432	1	How <b>often</b> did you <b>think</b> about the <b>scene</b>?   <center><br><b>NEVER (1)    BRIEFLY (2)   OFTEN (3) </b>	-16	0	0	0	0	0	0
9	2023-04-04	08:42:35	09:09:55	09:09:55:403	28	1	TNT_NoThink_CSp	fixation	0	5	500	0	0	1	495	1	+	-8	0	0	0	0	0	0
9	2023-04-04	08:42:35	09:09:56	09:09:56:417	28	2	TNT_NoThink_CSp	NoThink	0	5	0	0	0	0	1000	1	DON'T THINK	-16	0	0	0	0	0	0
9	2023-04-04	08:42:35	09:10:01	09:10:01:434	28	3	TNT_NoThink_CSp	TNT_NoThink_CSp	0	5	0	0	0	0	5000	1	Cue24.jpg	-16	0	0	0	0	0	0
9	2023-04-04	08:42:35	09:10:02	09:10:02:220	28	4	TNT_NoThink_CSp	Intrusion	0	1000	3000	0	80	1	770	1	How <b>often</b> did you <b>think</b> about the <b>scene</b>?   <center><br><b>NEVER (1)    BRIEFLY (2)   OFTEN (3) </b>	-16	0	0	0	0	0	0
9	2023-04-04	08:42:35	09:10:05	09:10:05:938	29	1	TNT_Think_CSp	fixation	0	5	500	0	0	1	495	1	+	-9	0	0	0	0	0	0
9	2023-04-04	08:42:35	09:10:06	09:10:06:951	29	2	TNT_Think_CSp	Think	0	5	0	0	0	0	1000	1	THINK	-16	0	0	0	0	0	0
9	2023-04-04	08:42:35	09:10:11	09:10:11:968	29	3	TNT_Think_CSp	TNT_Think_CSp	0	5	0	0	0	0	5000	4	Cue26.jpg	-16	0	0	0	0	0	0
9	2023-04-04	08:42:35	09:10:11	09:10:11:565	29	4	TNT_Think_CSp	Intrusion	0	500	3000	0	81	1	580	1	How <b>often</b> did you <b>think</b> about the <b>scene</b>?   <center><br><b>NEVER (1)    BRIEFLY (2)   OFTEN (3) </b>	-16	0	0	0	0	0	0
9	2023-04-04	08:42:35	09:10:15	09:10:15:971	30	1	TNT_NoThink_CSm	fixation	0	5	1000	0	0	1	995	1	+	-8	0	0	0	0	0	0
9	2023-04-04	08:42:35	09:10:16	09:10:16:985	30	2	TNT_NoThink_CSm	NoThink	0	5	0	0	0	0	1000	1	DON'T THINK	-16	0	0	0	0	0	0
9	2023-04-04	08:42:35	09:10:21	09:10:21:02	30	3	TNT_NoThink_CSm	TNT_NoThink_CSm	0	5	0	0	0	0	5000	4	Cue2.jpg	-16	0	0	0	0	0	0
9	2023-04-04	08:42:35	09:10:22	09:10:22:381	30	4	TNT_NoThink_CSm	Intrusion	0	1500	3000	0	80	1	1362	1	How <b>often</b> did you <b>think</b> about the <b>scene</b>?   <center><br><b>NEVER (1)    BRIEFLY (2)   OFTEN (3) </b>	-16	0	0	0	0	0	0
9	2023-04-04	08:42:35	09:10:25	09:10:25:506	31	1	TNT_Object_CSp	fixation	0	5	1500	0	0	1	1495	1	+	-16	0	0	0	0	0	0
9	2023-04-04	08:42:35	09:10:26	09:10:26:519	31	2	TNT_Object_CSp	Passive	0	5	0	0	0	0	1000	1	VIEW	-16	0	0	0	0	0	0
9	2023-04-04	08:42:35	09:10:31	09:10:31:535	31	3	TNT_Object_CSp	TNT_Object_CSp	0	1000	0	0	0	0	5000	2	Object3.jpg	-16	0	0	0	0	0	0
9	2023-04-04	08:42:35	09:10:33	09:10:33:535	32	1	TNT_Object_CSp	fixation	0	5	1000	0	0	1	995	1	+	-9	0	0	0	0	0	0
9	2023-04-04	08:42:35	09:10:34	09:10:34:553	32	2	TNT_Object_CSp	Passive	0	5	0	0	0	0	1000	1	VIEW	-16	0	0	0	0	0	0
9	2023-04-04	08:42:35	09:10:39	09:10:39:570	32	3	TNT_Object_CSp	TNT_Object_CSp	0	500	0	0	0	0	5000	3	Object5.jpg	-16	0	0	0	0	0	0
9	2023-04-04	08:42:35	09:10:40	09:10:40:569	33	1	TNT_Object_CSp	fixation	0	5	500	0	0	1	495	1	+	-9	0	0	0	0	0	0
9	2023-04-04	08:42:35	09:10:41	09:10:41:586	33	2	TNT_Object_CSp	Passive	0	5	0	0	0	0	1000	1	VIEW	-16	0	0	0	0	0	0
9	2023-04-04	08:42:35	09:10:46	09:10:46:603	33	3	TNT_Object_CSp	TNT_Object_CSp	0	1500	0	0	0	0	5000	4	Object1.jpg	-16	0	0	0	0	0	0
9	2023-04-04	08:42:35	09:10:49	09:10:49:603	34	1	TNT_NoThink_CSm	fixation	0	5	1500	0	0	1	1495	1	+	-9	0	0	0	0	0	0
9	2023-04-04	08:42:35	09:10:50	09:10:50:620	34	2	TNT_NoThink_CSm	NoThink	0	5	0	0	0	0	1000	1	DON'T THINK	-16	0	0	0	0	0	0
9	2023-04-04	08:42:35	09:10:55	09:10:55:637	34	3	TNT_NoThink_CSm	TNT_NoThink_CSm	0	5	0	0	0	0	5000	6	Cue11.jpg	-16	0	0	0	0	0	0
9	2023-04-04	08:42:35	09:10:56	09:10:56:348	34	4	TNT_NoThink_CSm	Intrusion	0	1500	3000	0	80	1	694	1	How <b>often</b> did you <b>think</b> about the <b>scene</b>?   <center><br><b>NEVER (1)    BRIEFLY (2)   OFTEN (3) </b>	-16	0	0	0	0	0	0
9	2023-04-04	08:42:35	09:10:59	09:10:59:141	35	1	TNT_Object_CSp	fixation	0	5	500	0	0	1	495	1	+	-9	0	0	0	0	0	0
9	2023-04-04	08:42:35	09:11:00	09:11:00:154	35	2	TNT_Object_CSp	Passive	0	5	0	0	0	0	1000	1	VIEW	-16	0	0	0	0	0	0
9	2023-04-04	08:42:35	09:11:05	09:11:05:171	35	3	TNT_Object_CSp	TNT_Object_CSp	0	500	0	0	0	0	5000	3	Object5.jpg	-16	0	0	0	0	0	0
9	2023-04-04	08:42:35	09:11:07	09:11:07:170	36	1	TNT_Think_CSp	fixation	0	5	1500	0	0	1	1495	1	+	-8	0	0	0	0	0	0
9	2023-04-04	08:42:35	09:11:08	09:11:08:188	36	2	TNT_Think_CSp	Think	0	5	0	0	0	0	1000	1	THINK	-16	0	0	0	0	0	0
9	2023-04-04	08:42:35	09:11:13	09:11:13:205	36	3	TNT_Think_CSp	TNT_Think_CSp	0	5	0	0	0	0	5000	5	Cue23.jpg	-16	0	0	0	0	0	0
9	2023-04-04	08:42:35	09:11:13	09:11:13:757	36	4	TNT_Think_CSp	Intrusion	0	500	3000	0	81	1	534	1	How <b>often</b> did you <b>think</b> about the <b>scene</b>?   <center><br><b>NEVER (1)    BRIEFLY (2)   OFTEN (3) </b>	-16	0	0	0	0	0	0
9	2023-04-04	08:42:35	09:11:17	09:11:17:209	37	1	TNT_Object_CSm	fixation	0	5	1000	0	0	1	995	1	+	0	0	0	0	0	0	0
9	2023-04-04	08:42:35	09:11:18	09:11:18:222	37	2	TNT_Object_CSm	Passive	0	5	0	0	0	0	1000	1	VIEW	-16	0	0	0	0	0	0
9	2023-04-04	08:42:35	09:11:23	09:11:23:239	37	3	TNT_Object_CSm	TNT_Object_CSm	0	500	0	0	0	0	5000	2	Object6.jpg	-16	0	0	0	0	0	0
9	2023-04-04	08:42:35	09:11:24	09:11:24:238	38	1	TNT_NoThink_CSm	fixation	0	5	500	0	0	1	495	1	+	-8	0	0	0	0	0	0
9	2023-04-04	08:42:35	09:11:25	09:11:25:256	38	2	TNT_NoThink_CSm	NoThink	0	5	0	0	0	0	1000	1	DON'T THINK	-16	0	0	0	0	0	0
9	2023-04-04	08:42:35	09:11:30	09:11:30:273	38	3	TNT_NoThink_CSm	TNT_NoThink_CSm	0	5	0	0	0	0	5000	2	Cue20.jpg	-16	0	0	0	0	0	0
9	2023-04-04	08:42:35	09:11:31	09:11:31:437	38	4	TNT_NoThink_CSm	Intrusion	0	1000	3000	0	80	1	1147	1	How <b>often</b> did you <b>think</b> about the <b>scene</b>?   <center><br><b>NEVER (1)    BRIEFLY (2)   OFTEN (3) </b>	-16	0	0	0	0	0	0
9	2023-04-04	08:42:35	09:11:34	09:11:34:777	39	1	TNT_Object_CSm	fixation	0	5	1500	0	0	1	1495	1	+	-16	0	0	0	0	0	0
9	2023-04-04	08:42:35	09:11:35	09:11:35:790	39	2	TNT_Object_CSm	Passive	0	5	0	0	0	0	1000	1	VIEW	-16	0	0	0	0	0	0
9	2023-04-04	08:42:35	09:11:41	09:11:41:806	39	3	TNT_Object_CSm	TNT_Object_CSm	0	1500	0	0	0	0	5000	4	Object4.jpg	-16	0	0	0	0	0	0
9	2023-04-04	08:42:35	09:11:43	09:11:43:306	40	1	TNT_Think_CSp	fixation	0	5	1000	0	0	1	995	1	+	-9	0	0	0	0	0	0
9	2023-04-04	08:42:35	09:11:44	09:11:44:323	40	2	TNT_Think_CSp	Think	0	5	0	0	0	0	1000	1	THINK	-16	0	0	0	0	0	0
9	2023-04-04	08:42:35	09:11:49	09:11:49:340	40	3	TNT_Think_CSp	TNT_Think_CSp	0	5	0	0	0	0	5000	4	Cue26.jpg	-16	0	0	0	0	0	0
9	2023-04-04	08:42:35	09:11:50	09:11:50:901	40	4	TNT_Think_CSp	Intrusion	0	1500	3000	0	81	1	543	1	How <b>often</b> did you <b>think</b> about the <b>scene</b>?   <center><br><b>NEVER (1)    BRIEFLY (2)   OFTEN (3) </b>	-16	0	0	0	0	0	0
9	2023-04-04	08:42:35	09:11:54	09:11:54:844	41	1	TNT_NoThink_CSm	fixation	0	5	1500	0	0	1	1495	1	+	-8	0	0	0	0	0	0
9	2023-04-04	08:42:35	09:11:55	09:11:55:858	41	2	TNT_NoThink_CSm	NoThink	0	5	0	0	0	0	1000	1	DON'T THINK	-16	0	0	0	0	0	0
9	2023-04-04	08:42:35	09:12:00	09:12:00:874	41	3	TNT_NoThink_CSm	TNT_NoThink_CSm	0	5	0	0	0	0	5000	5	Cue16.jpg	-16	0	0	0	0	0	0
9	2023-04-04	08:42:35	09:12:01	09:12:01:861	41	4	TNT_NoThink_CSm	Intrusion	0	1000	3000	0	79	1	969	1	How <b>often</b> did you <b>think</b> about the <b>scene</b>?   <center><br><b>NEVER (1)    BRIEFLY (2)   OFTEN (3) </b>	-16	0	0	0	0	0	0
9	2023-04-04	08:42:35	09:12:03	09:12:03:379	42	1	TNT_Object_CSm	fixation	0	5	500	0	0	1	495	1	+	-16	0	0	0	0	0	0
9	2023-04-04	08:42:35	09:12:04	09:12:04:391	42	2	TNT_Object_CSm	Passive	0	5	0	0	0	0	1000	1	VIEW	-16	0	0	0	0	0	0
9	2023-04-04	08:42:35	09:12:09	09:12:09:408	42	3	TNT_Object_CSm	TNT_Object_CSm	0	1000	0	0	0	0	5000	3	Object8.jpg	-16	0	0	0	0	0	0
9	2023-04-04	08:42:35	09:12:11	09:12:11:408	43	1	TNT_Think_CSp	fixation	0	5	1000	0	0	1	995	1	+	-8	0	0	0	0	0	0
9	2023-04-04	08:42:35	09:12:12	09:12:12:425	43	2	TNT_Think_CSp	Think	0	5	0	0	0	0	1000	1	THINK	-16	0	0	0	0	0	0
9	2023-04-04	08:42:35	09:12:17	09:12:17:442	43	3	TNT_Think_CSp	TNT_Think_CSp	0	5	0	0	0	0	5000	3	Cue8.jpg	-16	0	0	0	0	0	0
9	2023-04-04	08:42:35	09:12:18	09:12:18:109	43	4	TNT_Think_CSp	Intrusion	0	500	3000	0	81	1	649	1	How <b>often</b> did you <b>think</b> about the <b>scene</b>?   <center><br><b>NEVER (1)    BRIEFLY (2)   OFTEN (3) </b>	-16	0	0	0	0	0	0
9	2023-04-04	08:42:35	09:12:22	09:12:22:946	44	1	TNT_Think_CSm	fixation	0	5	1500	0	0	1	1495	1	+	-8	0	0	0	0	0	0
9	2023-04-04	08:42:35	09:12:23	09:12:23:959	44	2	TNT_Think_CSm	Think	0	5	0	0	0	0	1000	1	THINK	-16	0	0	0	0	0	0
9	2023-04-04	08:42:35	09:12:28	09:12:28:976	44	3	TNT_Think_CSm	TNT_Think_CSm	0	5	0	0	0	0	5000	5	Cue15.jpg	-16	0	0	0	0	0	0
9	2023-04-04	08:42:35	09:12:30	09:12:30:983	44	4	TNT_Think_CSm	Intrusion	0	1000	3000	0	0	0	2000	1	How <b>often</b> did you <b>think</b> about the <b>scene</b>?   <center><br><b>NEVER (1)    BRIEFLY (2)   OFTEN (3) </b>	-16	0	0	0	0	0	0
9	2023-04-04	08:42:35	09:12:32	09:12:32:980	45	1	TNT_NoThink_CSp	fixation	0	5	1000	0	0	1	995	1	+	-8	0	0	0	0	0	0
9	2023-04-04	08:42:35	09:12:33	09:12:33:993	45	2	TNT_NoThink_CSp	NoThink	0	5	0	0	0	0	1000	1	DON'T THINK	-16	0	0	0	0	0	0
9	2023-04-04	08:42:35	09:12:38	09:12:38:010	45	3	TNT_NoThink_CSp	TNT_NoThink_CSp	0	5	0	0	0	0	5000	5	Cue30.jpg	-16	0	0	0	0	0	0
9	2023-04-04	08:42:35	09:12:38	09:12:38:813	45	4	TNT_NoThink_CSp	Intrusion	0	1500	3000	0	79	1	785	1	How <b>often</b> did you <b>think</b> about the <b>scene</b>?   <center><br><b>NEVER (1)    BRIEFLY (2)   OFTEN (3) </b>	-16	0	0	0	0	0	0
9	2023-04-04	08:42:35	09:12:41	09:12:41:514	46	1	TNT_NoThink_CSp	fixation	0	5	500	0	0	1	495	1	+	-8	0	0	0	0	0	0
9	2023-04-04	08:42:35	09:12:42	09:12:42:527	46	2	TNT_NoThink_CSp	NoThink	0	5	0	0	0	0	1000	1	DON'T THINK	-16	0	0	0	0	0	0
9	2023-04-04	08:42:35	09:12:47	09:12:47:544	46	3	TNT_NoThink_CSp	TNT_NoThink_CSp	0	5	0	0	0	0	5000	6	Cue28.jpg	-16	0	0	0	0	0	0
9	2023-04-04	08:42:35	09:12:49	09:12:49:989	46	4	TNT_NoThink_CSp	Intrusion	0	500	3000	0	79	1	1427	1	How <b>often</b> did you <b>think</b> about the <b>scene</b>?   <center><br><b>NEVER (1)    BRIEFLY (2)   OFTEN (3) </b>	-16	0	0	0	0	0	0
9	2023-04-04	08:42:35	09:12:52	09:12:52:047	47	1	TNT_Think_CSm	fixation	0	5	1500	0	0	1	1495	1	+	-9	0	0	0	0	0	0
9	2023-04-04	08:42:35	09:12:53	09:12:53:061	47	2	TNT_Think_CSm	Think	0	5	0	0	0	0	1000	1	THINK	-16	0	0	0	0	0	0
9	2023-04-04	08:42:35	09:12:58	09:12:58:078	47	3	TNT_Think_CSm	TNT_Think_CSm	0	5	0	0	0	0	5000	1	Cue19.jpg	-16	0	0	0	0	0	0
9	2023-04-04	08:42:35	09:12:59	09:12:59:973	47	4	TNT_Think_CSm	Intrusion	0	1500	3000	0	81	1	877	1	How <b>often</b> did you <b>think</b> about the <b>scene</b>?   <center><br><b>NEVER (1)    BRIEFLY (2)   OFTEN (3) </b>	-16	0	0	0	0	0	0
9	2023-04-04	08:42:35	09:13:01	09:13:01:581	48	1	TNT_Think_CSp	fixation	0	5	500	0	0	1	495	1	+	-16	0	0	0	0	0	0
9	2023-04-04	08:42:35	09:13:02	09:13:02:595	48	2	TNT_Think_CSp	Think	0	5	0	0	0	0	1000	1	THINK	-16	0	0	0	0	0	0
9	2023-04-04	08:42:35	09:13:07	09:13:07:612	48	3	TNT_Think_CSp	TNT_Think_CSp	0	5	0	0	0	0	5000	2	Cue13.jpg	-16	0	0	0	0	0	0
9	2023-04-04	08:42:35	09:13:08	09:13:08:461	48	4	TNT_Think_CSp	Intrusion	0	1000	3000	0	81	1	831	1	How <b>often</b> did you <b>think</b> about the <b>scene</b>?   <center><br><b>NEVER (1)    BRIEFLY (2)   OFTEN (3) </b>	-16	0	0	0	0	0	0
9	2023-04-04	08:42:35	09:13:11	09:13:11:615	49	1	TNT_NoThink_CSm	fixation	0	5	1000	0	0	1	995	1	+	-8	0	0	0	0	0	0
9	2023-04-04	08:42:35	09:13:12	09:13:12:629	49	2	TNT_NoThink_CSm	NoThink	0	5	0	0	0	0	1000	1	DON'T THINK	-16	0	0	0	0	0	0
9	2023-04-04	08:42:35	09:13:17	09:13:17:646	49	3	TNT_NoThink_CSm	TNT_NoThink_CSm	0	5	0	0	0	0	5000	1	Cue7.jpg	-16	0	0	0	0	0	0
9	2023-04-04	08:42:35	09:13:18	09:13:18:157	49	4	TNT_NoThink_CSm	Intrusion	0	500	3000	0	80	1	493	1	How <b>often</b> did you <b>think</b> about the <b>scene</b>?   <center><br><b>NEVER (1)    BRIEFLY (2)   OFTEN (3) </b>	-16	0	0	0	0	0	0
9	2023-04-04	08:42:35	09:13:21	09:13:21:649	50	1	TNT_NoThink_CSm	fixation	0	5	1000	0	0	1	995	1	+	-8	0	0	0	0	0	0
9	2023-04-04	08:42:35	09:13:22	09:13:22:663	50	2	TNT_NoThink_CSm	NoThink	0	5	0	0	0	0	1000	1	DON'T THINK	-16	0	0	0	0	0	0
9	2023-04-04	08:42:35	09:13:27	09:13:27:680	50	3	TNT_NoThink_CSm	TNT_NoThink_CSm	0	5	0	0	0	0	5000	3	Cue31.jpg	-16	0	0	0	0	0	0
9	2023-04-04	08:42:35	09:13:28	09:13:28:637	50	4	TNT_NoThink_CSm	Intrusion	0	500	3000	0	79	1	940	1	How <b>often</b> did you <b>think</b> about the <b>scene</b>?   <center><br><b>NEVER (1)    BRIEFLY (2)   OFTEN (3) </b>	-16	0	0	0	0	0	0
9	2023-04-04	08:42:35	09:13:32	09:13:32:184	51	1	TNT_Think_CSm	fixation	0	5	1500	0	0	1	1495	1	+	-8	0	0	0	0	0	0
9	2023-04-04	08:42:35	09:13:33	09:13:33:197	51	2	TNT_Think_CSm	Think	0	5	0	0	0	0	1000	1	THINK	-16	0	0	0	0	0	0
9	2023-04-04	08:42:35	09:13:38	09:13:38:214	51	3	TNT_Think_CSm	TNT_Think_CSm	0	5	0	0	0	0	5000	6	Cue5.jpg	-16	0	0	0	0	0	0
9	2023-04-04	08:42:35	09:13:39	09:13:39:373	51	4	TNT_Think_CSm	Intrusion	0	1500	3000	0	81	1	1141	1	How <b>often</b> did you <b>think</b> about the <b>scene</b>?   <center><br><b>NEVER (1)    BRIEFLY (2)   OFTEN (3) </b>	-16	0	0	0	0	0	0
9	2023-04-04	08:42:35	09:13:41	09:13:41:718	52	1	TNT_Think_CSm	fixation	0	5	500	0	0	1	495	1	+	-8	0	0	0	0	0	0
9	2023-04-04	08:42:35	09:13:42	09:13:42:731	52	2	TNT_Think_CSm	Think	0	5	0	0	0	0	1000	1	THINK	-16	0	0	0	0	0	0
9	2023-04-04	08:42:35	09:13:47	09:13:47:747	52	3	TNT_Think_CSm	TNT_Think_CSm	0	5	0	0	0	0	5000	2	Cue3.jpg	-16	0	0	0	0	0	0
9	2023-04-04	08:42:35	09:13:48	09:13:48:445	52	4	TNT_Think_CSm	Intrusion	0	1000	3000	0	81	1	679	1	How <b>often</b> did you <b>think</b> about the <b>scene</b>?   <center><br><b>NEVER (1)    BRIEFLY (2)   OFTEN (3) </b>	-16	0	0	0	0	0	0
9	2023-04-04	08:42:35	09:13:51	09:13:51:252	53	1	TNT_Object_CSp	fixation	0	5	500	0	0	1	495	1	+	-8	0	0	0	0	0	0
9	2023-04-04	08:42:35	09:13:52	09:13:52:264	53	2	TNT_Object_CSp	Passive	0	5	0	0	0	0	1000	1	VIEW	-16	0	0	0	0	0	0
9	2023-04-04	08:42:35	09:13:57	09:13:57:281	53	3	TNT_Object_CSp	TNT_Object_CSp	0	1000	0	0	0	0	5000	2	Object3.jpg	-16	0	0	0	0	0	0
9	2023-04-04	08:42:35	09:13:59	09:13:59:281	54	1	TNT_NoThink_CSp	fixation	0	5	1000	0	0	1	995	1	+	-8	0	0	0	0	0	0
9	2023-04-04	08:42:35	09:14:00	09:14:00:299	54	2	TNT_NoThink_CSp	NoThink	0	5	0	0	0	0	1000	1	DON'T THINK	-16	0	0	0	0	0	0
9	2023-04-04	08:42:35	09:14:05	09:14:05:315	54	3	TNT_NoThink_CSp	TNT_NoThink_CSp	0	5	0	0	0	0	5000	4	Cue9.jpg	-16	0	0	0	0	0	0
9	2023-04-04	08:42:35	09:14:06	09:14:06:949	54	4	TNT_NoThink_CSp	Intrusion	0	500	3000	0	80	1	616	1	How <b>often</b> did you <b>think</b> about the <b>scene</b>?   <center><br><b>NEVER (1)    BRIEFLY (2)   OFTEN (3) </b>	-16	0	0	0	0	0	0
9	2023-04-04	08:42:35	09:14:09	09:14:09:819	55	1	TNT_Object_CSp	fixation	0	5	1500	0	0	1	1495	1	+	-9	0	0	0	0	0	0
9	2023-04-04	08:42:35	09:14:11	09:14:11:832	55	2	TNT_Object_CSp	Passive	0	5	0	0	0	0	1000	1	VIEW	-16	0	0	0	0	0	0
9	2023-04-04	08:42:35	09:14:16	09:14:16:850	55	3	TNT_Object_CSp	TNT_Object_CSp	0	1000	0	0	0	0	5000	1	Object2.jpg	-16	0	0	0	0	0	0
9	2023-04-04	08:42:35	09:14:17	09:14:17:349	56	1	TNT_Think_CSm	fixation	0	5	500	0	0	1	495	1	+	-8	0	0	0	0	0	0
9	2023-04-04	08:42:35	09:14:18	09:14:18:366	56	2	TNT_Think_CSm	Think	0	5	0	0	0	0	1000	1	THINK	-16	0	0	0	0	0	0
9	2023-04-04	08:42:35	09:14:23	09:14:23:383	56	3	TNT_Think_CSm	TNT_Think_CSm	0	5	0	0	0	0	5000	3	Cue12.jpg	-16	0	0	0	0	0	0
9	2023-04-04	08:42:35	09:14:24	09:14:24:173	56	4	TNT_Think_CSm	Intrusion	0	1000	3000	0	81	1	772	1	How <b>often</b> did you <b>think</b> about the <b>scene</b>?   <center><br><b>NEVER (1)    BRIEFLY (2)   OFTEN (3) </b>	-16	0	0	0	0	0	0
9	2023-04-04	08:42:35	09:14:27	09:14:27:387	57	1	TNT_NoThink_CSp	fixation	0	5	1000	0	0	1	995	1	+	-8	0	0	0	0	0	0
9	2023-04-04	08:42:35	09:14:28	09:14:28:401	57	2	TNT_NoThink_CSp	NoThink	0	5	0	0	0	0	1000	1	DON'T THINK	-16	0	0	0	0	0	0
9	2023-04-04	08:42:35	09:14:33	09:14:33:417	57	3	TNT_NoThink_CSp	TNT_NoThink_CSp	0	5	0	0	0	0	5000	1	Cue24.jpg	-16	0	0	0	0	0	0
9	2023-04-04	08:42:35	09:14:34	09:14:34:917	57	4	TNT_NoThink_CSp	Intrusion	0	1500	3000	0	80	1	482	1	How <b>often</b> did you <b>think</b> about the <b>scene</b>?   <center><br><b>NEVER (1)    BRIEFLY (2)   OFTEN (3) </b>	-16	0	0	0	0	0	0
9	2023-04-04	08:42:35	09:14:38	09:14:38:921	58	1	TNT_Object_CSp	fixation	0	5	1500	0	0	1	1495	1	+	-9	0	0	0	0	0	0
9	2023-04-04	08:42:35	09:14:39	09:14:39:934	58	2	TNT_Object_CSp	Passive	0	5	0	0	0	0	1000	1	VIEW	-16	0	0	0	0	0	0
9	2023-04-04	08:42:35	09:14:44	09:14:44:951	58	3	TNT_Object_CSp	TNT_Object_CSp	0	1500	0	0	0	0	5000	4	Object1.jpg	-16	0	0	0	0	0	0
9	2023-04-04	08:42:35	09:14:47	09:14:47:950	59	1	TNT_Think_CSp	fixation	0	5	1500	0	0	1	1495	1	+	-8	0	0	0	0	0	0
9	2023-04-04	08:42:35	09:14:48	09:14:48:968	59	2	TNT_Think_CSp	Think	0	5	0	0	0	0	1000	1	THINK	-16	0	0	0	0	0	0
9	2023-04-04	08:42:35	09:14:53	09:14:53:985	59	3	TNT_Think_CSp	TNT_Think_CSp	0	5	0	0	0	0	5000	1	Cue34.jpg	-16	0	0	0	0	0	0
9	2023-04-04	08:42:35	09:14:53	09:14:53:517	59	4	TNT_Think_CSp	Intrusion	0	1500	3000	0	81	1	514	1	How <b>often</b> did you <b>think</b> about the <b>scene</b>?   <center><br><b>NEVER (1)    BRIEFLY (2)   OFTEN (3) </b>	-16	0	0	0	0	0	0
9	2023-04-04	08:42:35	09:14:57	09:14:57:989	60	1	TNT_NoThink_CSm	fixation	0	5	1000	0	0	1	995	1	+	-9	0	0	0	0	0	0
9	2023-04-04	08:42:35	09:14:58	09:14:58:02	60	2	TNT_NoThink_CSm	NoThink	0	5	0	0	0	0	1000	1	DON'T THINK	-16	0	0	0	0	0	0
9	2023-04-04	08:42:35	09:15:03	09:15:03:019	60	3	TNT_NoThink_CSm	TNT_NoThink_CSm	0	5	0	0	0	0	5000	4	Cue2.jpg	-16	0	0	0	0	0	0
9	2023-04-04	08:42:35	09:15:04	09:15:04:157	60	4	TNT_NoThink_CSm	Intrusion	0	500	3000	0	79	1	1121	1	How <b>often</b> did you <b>think</b> about the <b>scene</b>?   <center><br><b>NEVER (1)    BRIEFLY (2)   OFTEN (3) </b>	-16	0	0	0	0	0	0
9	2023-04-04	08:42:35	09:15:06	09:15:06:522	61	1	TNT_Object_CSm	fixation	0	5	500	0	0	1	495	1	+	-3	0	0	0	0	0	0
9	2023-04-04	08:42:35	09:15:07	09:15:07:536	61	2	TNT_Object_CSm	Passive	0	5	0	0	0	0	1000	1	VIEW	-16	0	0	0	0	0	0
9	2023-04-04	08:42:35	09:15:12	09:15:12:553	61	3	TNT_Object_CSm	TNT_Object_CSm	0	1500	0	0	0	0	5000	1	Object7.jpg	-16	0	0	0	0	0	0
9	2023-04-04	08:42:35	09:15:14	09:15:14:552	62	1	TNT_NoThink_CSp	fixation	0	5	500	0	0	1	495	1	+	-7	0	0	0	0	0	0
9	2023-04-04	08:42:35	09:15:15	09:15:15:570	62	2	TNT_NoThink_CSp	NoThink	0	5	0	0	0	0	1000	1	DON'T THINK	-16	0	0	0	0	0	0
9	2023-04-04	08:42:35	09:15:20	09:15:20:587	62	3	TNT_NoThink_CSp	TNT_NoThink_CSp	0	5	0	0	0	0	5000	2	Cue33.jpg	-16	0	0	0	0	0	0
9	2023-04-04	08:42:35	09:15:21	09:15:21:213	62	4	TNT_NoThink_CSp	Intrusion	0	1000	3000	0	80	1	609	1	How <b>often</b> did you <b>think</b> about the <b>scene</b>?   <center><br><b>NEVER (1)    BRIEFLY (2)   OFTEN (3) </b>	-16	0	0	0	0	0	0
9	2023-04-04	08:42:35	09:15:24	09:15:24:591	63	1	TNT_Think_CSm	fixation	0	5	1000	0	0	1	995	1	+	-9	0	0	0	0	0	0
9	2023-04-04	08:42:35	09:15:25	09:15:25:604	63	2	TNT_Think_CSm	Think	0	5	0	0	0	0	1000	1	THINK	-16	0	0	0	0	0	0
9	2023-04-04	08:42:35	09:15:30	09:15:30:621	63	3	TNT_Think_CSm	TNT_Think_CSm	0	5	0	0	0	0	5000	4	Cue36.jpg	-16	0	0	0	0	0	0
9	2023-04-04	08:42:35	09:15:31	09:15:31:309	63	4	TNT_Think_CSm	Intrusion	0	500	3000	0	81	1	671	1	How <b>often</b> did you <b>think</b> about the <b>scene</b>?   <center><br><b>NEVER (1)    BRIEFLY (2)   OFTEN (3) </b>	-16	0	0	0	0	0	0
9	2023-04-04	08:42:35	09:15:35	09:15:35:125	64	1	TNT_Think_CSp	fixation	0	5	1500	0	0	1	1495	1	+	-9	0	0	0	0	0	0
9	2023-04-04	08:42:35	09:15:36	09:15:36:137	64	2	TNT_Think_CSp	Think	0	5	0	0	0	0	1000	1	THINK	-16	0	0	0	0	0	0
9	2023-04-04	08:42:35	09:15:41	09:15:41:155	64	3	TNT_Think_CSp	TNT_Think_CSp	0	5	0	0	0	0	5000	6	Cue14.jpg	-16	0	0	0	0	0	0
9	2023-04-04	08:42:35	09:15:42	09:15:42:445	64	4	TNT_Think_CSp	Intrusion	0	1000	3000	0	81	1	1273	1	How <b>often</b> did you <b>think</b> about the <b>scene</b>?   <center><br><b>NEVER (1)    BRIEFLY (2)   OFTEN (3) </b>	-16	0	0	0	0	0	0
9	2023-04-04	08:42:35	09:15:45	09:15:45:159	65	1	TNT_NoThink_CSp	fixation	0	5	1000	0	0	1	995	1	+	-16	0	0	0	0	0	0
9	2023-04-04	08:42:35	09:15:46	09:15:46:172	65	2	TNT_NoThink_CSp	NoThink	0	5	0	0	0	0	1000	1	DON'T THINK	-16	0	0	0	0	0	0
9	2023-04-04	08:42:35	09:15:51	09:15:51:188	65	3	TNT_NoThink_CSp	TNT_NoThink_CSp	0	5	0	0	0	0	5000	3	Cue32.jpg	-16	0	0	0	0	0	0
9	2023-04-04	08:42:35	09:15:52	09:15:52:077	65	4	TNT_NoThink_CSp	Intrusion	0	1500	3000	0	79	1	871	1	How <b>often</b> did you <b>think</b> about the <b>scene</b>?   <center><br><b>NEVER (1)    BRIEFLY (2)   OFTEN (3) </b>	-16	0	0	0	0	0	0
9	2023-04-04	08:42:35	09:15:55	09:15:55:692	66	1	Expectancy_rating	fixation	0	5	1500	0	0	1	1495	1	+	-8	0	0	0	0	0	0
9	2023-04-04	08:42:35	09:16:04	09:16:04:168	66	2	Expectancy_rating	expectancy_rating	0	1000	0	0	0	0	8427	1	When you saw the <b>object</b>,   to what <b>degree (0-100%)</b> did you expect the <b>unpleasant sound to occur</b>?	-16	46	Object6.jpg	-16	0	0	0
9	2023-04-04	08:42:35	09:16:05	09:16:05:654	67	1	Expectancy_rating	fixation	0	5	500	0	0	1	495	1	+	-8	0	0	0	0	0	0
9	2023-04-04	08:42:35	09:16:11	09:16:11:822	67	2	Expectancy_rating	expectancy_rating	0	1500	0	0	0	0	6140	1	When you saw the <b>object</b>,   to what <b>degree (0-100%)</b> did you expect the <b>unpleasant sound to occur</b>?	-16	48	Object8.jpg	-16	0	0	0
9	2023-04-04	08:42:35	09:16:14	09:16:14:825	68	1	Expectancy_rating	fixation	0	5	1500	0	0	1	1495	1	+	-8	0	0	0	0	0	0
9	2023-04-04	08:42:35	09:16:25	09:16:25:472	68	2	Expectancy_rating	expectancy_rating	0	500	0	0	20	0	10621	1	When you saw the <b>object</b>,   to what <b>degree (0-100%)</b> did you expect the <b>unpleasant sound to occur</b>?	-16	41	Object1.jpg	-16	0	0	0
9	2023-04-04	08:42:35	09:16:26	09:16:26:475	69	1	Expectancy_rating	fixation	0	5	500	0	0	1	495	1	+	-9	0	0	0	0	0	0
9	2023-04-04	08:42:35	09:16:30	09:16:30:639	69	2	Expectancy_rating	expectancy_rating	0	1000	0	0	19	0	4114	1	When you saw the <b>object</b>,   to what <b>degree (0-100%)</b> did you expect the <b>unpleasant sound to occur</b>?	-16	28	Cue28.jpg	-16	0	0	0
9	2023-04-04	08:42:35	09:16:32	09:16:32:625	70	1	Expectancy_rating	fixation	0	5	1000	0	0	1	995	1	+	-7	0	0	0	0	0	0
9	2023-04-04	08:42:35	09:16:42	09:16:42:790	70	2	Expectancy_rating	expectancy_rating	0	500	0	0	70	0	10116	1	When you saw the <b>object</b>,   to what <b>degree (0-100%)</b> did you expect the <b>unpleasant sound to occur</b>?	-16	1	Cue1.jpg	-16	0	0	0
9	2023-04-04	08:42:35	09:16:44	09:16:44:775	71	1	Expectancy_rating	fixation	0	5	1500	0	0	1	1495	1	+	-8	0	0	0	0	0	0
9	2023-04-04	08:42:35	09:16:49	09:16:49:507	71	2	Expectancy_rating	expectancy_rating	0	1500	0	0	79	0	4709	1	When you saw the <b>object</b>,   to what <b>degree (0-100%)</b> did you expect the <b>unpleasant sound to occur</b>?	-16	35	Cue35.jpg	-16	0	0	0
9	2023-04-04	08:42:35	09:16:51	09:16:51:510	72	1	Expectancy_rating	fixation	0	5	500	0	0	1	495	1	+	-9	0	0	0	0	0	0
9	2023-04-04	08:42:35	09:16:56	09:16:56:591	72	2	Expectancy_rating	expectancy_rating	0	500	0	0	30	0	5031	1	When you saw the <b>object</b>,   to what <b>degree (0-100%)</b> did you expect the <b>unpleasant sound to occur</b>?	-16	26	Cue26.jpg	-16	0	0	0
9	2023-04-04	08:42:35	09:16:58	09:16:58:076	73	1	Expectancy_rating	fixation	0	5	1000	0	0	1	995	1	+	-9	0	0	0	0	0	0
9	2023-04-04	08:42:35	09:17:03	09:17:03:458	73	2	Expectancy_rating	expectancy_rating	0	1000	0	0	7	0	5328	1	When you saw the <b>object</b>,   to what <b>degree (0-100%)</b> did you expect the <b>unpleasant sound to occur</b>?	-16	5	Cue5.jpg	-16	0	0	0
9	2023-04-04	08:42:35	09:17:05	09:17:05:443	74	1	Expectancy_rating	fixation	0	5	1000	0	0	1	995	1	+	-5	0	0	0	0	0	0
9	2023-04-04	08:42:35	09:17:11	09:17:11:286	74	2	Expectancy_rating	expectancy_rating	0	1500	0	0	28	0	5793	1	When you saw the <b>object</b>,   to what <b>degree (0-100%)</b> did you expect the <b>unpleasant sound to occur</b>?	-16	22	Cue22.jpg	-16	0	0	0
9	2023-04-04	08:42:35	09:17:14	09:17:14:276	75	1	Expectancy_rating	fixation	0	5	1500	0	0	1	1495	1	+	-9	0	0	0	0	0	0
9	2023-04-04	08:42:35	09:17:21	09:17:21:605	75	2	Expectancy_rating	expectancy_rating	0	500	0	0	6	0	7279	1	When you saw the <b>object</b>,   to what <b>degree (0-100%)</b> did you expect the <b>unpleasant sound to occur</b>?	-16	31	Cue31.jpg	-16	0	0	0
9	2023-04-04	08:42:35	09:17:22	09:17:22:594	76	1	Expectancy_rating	fixation	0	5	500	0	0	1	495	1	+	-9	0	0	0	0	0	0
9	2023-04-04	08:42:35	09:17:26	09:17:26:092	76	2	Expectancy_rating	expectancy_rating	0	1000	0	0	1	0	3450	1	When you saw the <b>object</b>,   to what <b>degree (0-100%)</b> did you expect the <b>unpleasant sound to occur</b>?	-16	7	Cue7.jpg	-16	0	0	0
9	2023-04-04	08:42:35	09:17:28	09:17:28:080	77	1	Expectancy_rating	fixation	0	5	1000	0	0	1	995	1	+	-9	0	0	0	0	0	0
9	2023-04-04	08:42:35	09:17:30	09:17:30:793	77	2	Expectancy_rating	expectancy_rating	0	1500	0	0	3	0	2663	1	When you saw the <b>object</b>,   to what <b>degree (0-100%)</b> did you expect the <b>unpleasant sound to occur</b>?	-16	15	Cue15.jpg	-16	0	0	0
9	2023-04-04	08:42:35	09:17:32	09:17:32:780	78	1	Expectancy_rating	fixation	0	5	500	0	0	1	495	1	+	-8	0	0	0	0	0	0
9	2023-04-04	08:42:35	09:17:37	09:17:37:443	78	2	Expectancy_rating	expectancy_rating	0	1000	0	0	0	0	4618	1	When you saw the <b>object</b>,   to what <b>degree (0-100%)</b> did you expect the <b>unpleasant sound to occur</b>?	-16	47	Object7.jpg	-16	0	0	0
9	2023-04-04	08:42:35	09:17:40	09:17:40:930	79	1	Expectancy_rating	fixation	0	5	1500	0	0	1	1495	1	+	-9	0	0	0	0	0	0
9	2023-04-04	08:42:35	09:17:44	09:17:44:410	79	2	Expectancy_rating	expectancy_rating	0	1500	0	0	0	0	4452	1	When you saw the <b>object</b>,   to what <b>degree (0-100%)</b> did you expect the <b>unpleasant sound to occur</b>?	-16	11	Cue11.jpg	-16	0	0	0
9	2023-04-04	08:42:35	09:17:47	09:17:47:913	80	1	Expectancy_rating	fixation	0	5	1000	0	0	1	995	1	+	-9	0	0	0	0	0	0
9	2023-04-04	08:42:35	09:17:51	09:17:51:428	80	2	Expectancy_rating	expectancy_rating	0	500	0	0	80	0	4492	1	When you saw the <b>object</b>,   to what <b>degree (0-100%)</b> did you expect the <b>unpleasant sound to occur</b>?	-16	4	Cue4.jpg	-16	0	0	0
9	2023-04-04	08:42:35	09:17:52	09:17:52:430	81	1	Expectancy_rating	fixation	0	5	500	0	0	1	495	1	+	-7	0	0	0	0	0	0
9	2023-04-04	08:42:35	09:17:58	09:17:58:527	81	2	Expectancy_rating	expectancy_rating	0	1500	0	0	0	0	6047	1	When you saw the <b>object</b>,   to what <b>degree (0-100%)</b> did you expect the <b>unpleasant sound to occur</b>?	-16	44	Object4.jpg	-16	0	0	0
9	2023-04-04	08:42:35	09:18:01	09:18:01:513	82	1	Expectancy_rating	fixation	0	5	1500	0	0	1	1495	1	+	-8	0	0	0	0	0	0
9	2023-04-04	08:42:35	09:18:06	09:18:06:195	82	2	Expectancy_rating	expectancy_rating	0	1000	0	0	10	0	4651	1	When you saw the <b>object</b>,   to what <b>degree (0-100%)</b> did you expect the <b>unpleasant sound to occur</b>?	-16	38	Cue38.jpg	-16	0	0	0
9	2023-04-04	08:42:35	09:18:08	09:18:08:697	83	1	Expectancy_rating	fixation	0	5	1500	0	0	1	1495	1	+	-9	0	0	0	0	0	0
9	2023-04-04	08:42:35	09:18:14	09:18:14:879	83	2	Expectancy_rating	expectancy_rating	0	500	0	0	9	0	5155	1	When you saw the <b>object</b>,   to what <b>degree (0-100%)</b> did you expect the <b>unpleasant sound to occur</b>?	-16	13	Cue13.jpg	-16	0	0	0
9	2023-04-04	08:42:35	09:18:15	09:18:15:381	84	1	Expectancy_rating	fixation	0	5	1000	0	0	1	995	1	+	-7	0	0	0	0	0	0
9	2023-04-04	08:42:35	09:18:20	09:18:20:974	84	2	Expectancy_rating	expectancy_rating	0	1000	0	0	77	0	4543	1	When you saw the <b>object</b>,   to what <b>degree (0-100%)</b> did you expect the <b>unpleasant sound to occur</b>?	-16	40	Cue40.jpg	-16	0	0	0
9	2023-04-04	08:42:35	09:18:21	09:18:21:464	85	1	Expectancy_rating	fixation	0	5	500	0	0	1	495	1	+	-9	0	0	0	0	0	0
9	2023-04-04	08:42:35	09:18:30	09:18:30:696	85	2	Expectancy_rating	expectancy_rating	0	500	0	0	67	0	9180	1	When you saw the <b>object</b>,   to what <b>degree (0-100%)</b> did you expect the <b>unpleasant sound to occur</b>?	-16	8	Cue8.jpg	-16	0	0	0
9	2023-04-04	08:42:35	09:18:31	09:18:31:683	86	1	Expectancy_rating	fixation	0	5	500	0	0	1	495	1	+	-8	0	0	0	0	0	0
9	2023-04-04	08:42:35	09:18:36	09:18:36:247	86	2	Expectancy_rating	expectancy_rating	0	1500	0	0	20	0	4539	1	When you saw the <b>object</b>,   to what <b>degree (0-100%)</b> did you expect the <b>unpleasant sound to occur</b>?	-16	10	Cue10.jpg	-16	0	0	0
9	2023-04-04	08:42:35	09:18:39	09:18:39:250	87	1	Expectancy_rating	fixation	0	5	1500	0	0	1	1495	1	+	-6	0	0	0	0	0	0
9	2023-04-04	08:42:35	09:18:43	09:18:43:114	87	2	Expectancy_rating	expectancy_rating	0	1500	0	0	70	0	3812	1	When you saw the <b>object</b>,   to what <b>degree (0-100%)</b> did you expect the <b>unpleasant sound to occur</b>?	-16	23	Cue23.jpg	-16	0	0	0
9	2023-04-04	08:42:35	09:18:45	09:18:45:600	88	1	Expectancy_rating	fixation	0	5	1000	0	0	1	995	1	+	-9	0	0	0	0	0	0
9	2023-04-04	08:42:35	09:18:49	09:18:49:865	88	2	Expectancy_rating	expectancy_rating	0	500	0	0	50	0	3237	1	When you saw the <b>object</b>,   to what <b>degree (0-100%)</b> did you expect the <b>unpleasant sound to occur</b>?	-16	29	Cue29.jpg	-16	0	0	0
9	2023-04-04	08:42:35	09:18:50	09:18:50:367	89	1	Expectancy_rating	fixation	0	5	1000	0	0	1	995	1	+	-7	0	0	0	0	0	0
9	2023-04-04	08:42:35	09:18:55	09:18:55:815	89	2	Expectancy_rating	expectancy_rating	0	1000	0	0	91	0	5422	1	When you saw the <b>object</b>,   to what <b>degree (0-100%)</b> did you expect the <b>unpleasant sound to occur</b>?	-16	42	Object2.jpg	-16	0	0	0
9	2023-04-04	08:42:35	09:18:57	09:18:57:318	90	1	Expectancy_rating	fixation	0	5	500	0	0	1	495	1	+	-9	0	0	0	0	0	0
9	2023-04-04	08:42:35	09:19:01	09:19:01:832	90	2	Expectancy_rating	expectancy_rating	0	500	0	0	89	0	4487	1	When you saw the <b>object</b>,   to what <b>degree (0-100%)</b> did you expect the <b>unpleasant sound to occur</b>?	-16	45	Object5.jpg	-16	0	0	0
9	2023-04-04	08:42:35	09:19:03	09:19:03:835	91	1	Expectancy_rating	fixation	0	5	1500	0	0	1	1495	1	+	-9	0	0	0	0	0	0
9	2023-04-04	08:42:35	09:19:07	09:19:07:816	91	2	Expectancy_rating	expectancy_rating	0	1000	0	0	78	0	3930	1	When you saw the <b>object</b>,   to what <b>degree (0-100%)</b> did you expect the <b>unpleasant sound to occur</b>?	-16	34	Cue34.jpg	-16	0	0	0
9	2023-04-04	08:42:35	09:19:09	09:19:09:801	92	1	Expectancy_rating	fixation	0	5	1000	0	0	1	995	1	+	-8	0	0	0	0	0	0
9	2023-04-04	08:42:35	09:19:13	09:19:13:749	92	2	Expectancy_rating	expectancy_rating	0	1500	0	0	70	0	3899	1	When you saw the <b>object</b>,   to what <b>degree (0-100%)</b> did you expect the <b>unpleasant sound to occur</b>?	-16	14	Cue14.jpg	-16	0	0	0
9	2023-04-04	08:42:35	09:19:16	09:19:16:735	93	1	Expectancy_rating	fixation	0	5	1500	0	0	1	1495	1	+	-6	0	0	0	0	0	0
9	2023-04-04	08:42:35	09:19:21	09:19:21:267	93	2	Expectancy_rating	expectancy_rating	0	1500	0	0	96	0	4502	1	When you saw the <b>object</b>,   to what <b>degree (0-100%)</b> did you expect the <b>unpleasant sound to occur</b>?	-16	43	Object3.jpg	-16	0	0	0
9	2023-04-04	08:42:35	09:19:23	09:19:23:270	94	1	Expectancy_rating	fixation	0	5	500	0	0	1	495	1	+	-8	0	0	0	0	0	0
9	2023-04-04	08:42:35	09:19:31	09:19:31:017	94	2	Expectancy_rating	expectancy_rating	0	1000	0	0	22	0	7696	1	When you saw the <b>object</b>,   to what <b>degree (0-100%)</b> did you expect the <b>unpleasant sound to occur</b>?	-16	32	Cue32.jpg	-16	0	0	0
9	2023-04-04	08:42:35	09:19:32	09:19:32:503	95	1	Expectancy_rating	fixation	0	5	500	0	0	1	495	1	+	-3	0	0	0	0	0	0
9	2023-04-04	08:42:35	09:19:36	09:19:36:900	95	2	Expectancy_rating	expectancy_rating	0	500	0	0	90	0	3350	1	When you saw the <b>object</b>,   to what <b>degree (0-100%)</b> did you expect the <b>unpleasant sound to occur</b>?	-16	33	Cue33.jpg	-16	0	0	0
9	2023-04-04	08:42:35	09:19:37	09:19:37:387	96	1	Expectancy_rating	fixation	0	5	1000	0	0	1	995	1	+	-8	0	0	0	0	0	0
9	2023-04-04	08:42:35	09:19:41	09:19:41:035	96	2	Expectancy_rating	expectancy_rating	0	500	0	0	25	0	3595	1	When you saw the <b>object</b>,   to what <b>degree (0-100%)</b> did you expect the <b>unpleasant sound to occur</b>?	-16	2	Cue2.jpg	-16	0	0	0
9	2023-04-04	08:42:35	09:19:43	09:19:43:020	97	1	Expectancy_rating	fixation	0	5	1500	0	0	1	1495	1	+	-8	0	0	0	0	0	0
9	2023-04-04	08:42:35	09:19:46	09:19:46:501	97	2	Expectancy_rating	expectancy_rating	0	1500	0	0	65	0	3416	1	When you saw the <b>object</b>,   to what <b>degree (0-100%)</b> did you expect the <b>unpleasant sound to occur</b>?	-7	6	Cue6.jpg	-7	0	0	0
9	2023-04-04	08:42:35	09:19:49	09:19:49:487	98	1	Expectancy_rating	fixation	0	5	1500	0	0	1	1495	1	+	-8	0	0	0	0	0	0
9	2023-04-04	08:42:35	09:19:56	09:19:56:569	98	2	Expectancy_rating	expectancy_rating	0	1000	0	0	0	0	7054	1	When you saw the <b>object</b>,   to what <b>degree (0-100%)</b> did you expect the <b>unpleasant sound to occur</b>?	-16	27	Cue27.jpg	-16	0	0	0
9	2023-04-04	08:42:35	09:19:58	09:19:58:571	99	1	Expectancy_rating	fixation	0	5	1000	0	0	1	995	1	+	-6	0	0	0	0	0	0
9	2023-04-04	08:42:35	09:20:10	09:20:10:836	99	2	Expectancy_rating	expectancy_rating	0	1500	0	0	74	0	12210	1	When you saw the <b>object</b>,   to what <b>degree (0-100%)</b> did you expect the <b>unpleasant sound to occur</b>?	-16	24	Cue24.jpg	-16	0	0	0
9	2023-04-04	08:42:35	09:20:12	09:20:12:822	100	1	Expectancy_rating	fixation	0	5	500	0	0	1	495	1	+	-8	0	0	0	0	0	0
9	2023-04-04	08:42:35	09:20:16	09:20:16:603	100	2	Expectancy_rating	expectancy_rating	0	500	0	0	11	0	3759	1	When you saw the <b>object</b>,   to what <b>degree (0-100%)</b> did you expect the <b>unpleasant sound to occur</b>?	-16	36	Cue36.jpg	-16	0	0	0
9	2023-04-04	08:42:35	09:20:18	09:20:18:106	101	1	Expectancy_rating	fixation	0	5	1000	0	0	1	995	1	+	-7	0	0	0	0	0	0
9	2023-04-04	08:42:35	09:20:23	09:20:23:137	101	2	Expectancy_rating	expectancy_rating	0	1000	0	0	67	0	5003	1	When you saw the <b>object</b>,   to what <b>degree (0-100%)</b> did you expect the <b>unpleasant sound to occur</b>?	-16	21	Cue21.jpg	-16	0	0	0
9	2023-04-04	08:42:35	09:20:25	09:20:25:651	102	1	Expectancy_rating	fixation	0	5	1500	0	0	1	1495	1	+	-8	0	0	0	0	0	0
9	2023-04-04	08:42:35	09:20:31	09:20:31:454	102	2	Expectancy_rating	expectancy_rating	0	1000	0	0	20	0	5772	1	When you saw the <b>object</b>,   to what <b>degree (0-100%)</b> did you expect the <b>unpleasant sound to occur</b>?	-7	19	Cue19.jpg	-7	0	0	0
9	2023-04-04	08:42:35	09:20:33	09:20:33:957	103	1	Expectancy_rating	fixation	0	5	500	0	0	1	495	1	+	-7	0	0	0	0	0	0
9	2023-04-04	08:42:35	09:20:38	09:20:38:155	103	2	Expectancy_rating	expectancy_rating	0	1500	0	0	80	0	5168	1	When you saw the <b>object</b>,   to what <b>degree (0-100%)</b> did you expect the <b>unpleasant sound to occur</b>?	-16	39	Cue39.jpg	-16	0	0	0
9	2023-04-04	08:42:35	09:20:40	09:20:40:157	104	1	Expectancy_rating	fixation	0	5	500	0	0	1	495	1	+	-8	0	0	0	0	0	0
9	2023-04-04	08:42:35	09:20:43	09:20:43:572	104	2	Expectancy_rating	expectancy_rating	0	500	0	0	19	0	3392	1	When you saw the <b>object</b>,   to what <b>degree (0-100%)</b> did you expect the <b>unpleasant sound to occur</b>?	-16	37	Cue37.jpg	-16	0	0	0
9	2023-04-04	08:42:35	09:20:45	09:20:45:574	105	1	Expectancy_rating	fixation	0	5	1500	0	0	1	1495	1	+	-8	0	0	0	0	0	0
9	2023-04-04	08:42:35	09:20:49	09:20:49:922	105	2	Expectancy_rating	expectancy_rating	0	1500	0	0	75	0	3319	1	When you saw the <b>object</b>,   to what <b>degree (0-100%)</b> did you expect the <b>unpleasant sound to occur</b>?	-16	25	Cue25.jpg	-16	0	0	0
9	2023-04-04	08:42:35	09:20:51	09:20:51:425	106	1	Expectancy_rating	fixation	0	5	1000	0	0	1	995	1	+	-5	0	0	0	0	0	0
9	2023-04-04	08:42:35	09:20:55	09:20:55:072	106	2	Expectancy_rating	expectancy_rating	0	1000	0	0	9	0	3597	1	When you saw the <b>object</b>,   to what <b>degree (0-100%)</b> did you expect the <b>unpleasant sound to occur</b>?	-16	12	Cue12.jpg	-16	0	0	0
9	2023-04-04	08:42:35	09:20:57	09:20:57:558	107	1	Expectancy_rating	fixation	0	5	1500	0	0	1	1495	1	+	-8	0	0	0	0	0	0
9	2023-04-04	08:42:35	09:21:01	09:21:01:472	107	2	Expectancy_rating	expectancy_rating	0	500	0	0	18	0	3863	1	When you saw the <b>object</b>,   to what <b>degree (0-100%)</b> did you expect the <b>unpleasant sound to occur</b>?	-16	18	Cue18.jpg	-16	0	0	0
9	2023-04-04	08:42:35	09:21:02	09:21:02:459	108	1	Expectancy_rating	fixation	0	5	500	0	0	1	495	1	+	-8	0	0	0	0	0	0
9	2023-04-04	08:42:35	09:21:07	09:21:07:456	108	2	Expectancy_rating	expectancy_rating	0	500	0	0	63	0	4946	1	When you saw the <b>object</b>,   to what <b>degree (0-100%)</b> did you expect the <b>unpleasant sound to occur</b>?	-16	3	Cue3.jpg	-16	0	0	0
9	2023-04-04	08:42:35	09:21:09	09:21:09:960	109	1	Expectancy_rating	fixation	0	5	1000	0	0	1	995	1	+	-8	0	0	0	0	0	0
9	2023-04-04	08:42:35	09:21:18	09:21:18:053	109	2	Expectancy_rating	expectancy_rating	0	1000	0	0	60	0	9046	1	When you saw the <b>object</b>,   to what <b>degree (0-100%)</b> did you expect the <b>unpleasant sound to occur</b>?	-16	30	Cue30.jpg	-16	0	0	0
9	2023-04-04	08:42:35	09:21:20	09:21:20:042	110	1	Expectancy_rating	fixation	0	5	1000	0	0	1	995	1	+	-7	0	0	0	0	0	0
9	2023-04-04	08:42:35	09:21:23	09:21:23:941	110	2	Expectancy_rating	expectancy_rating	0	1500	0	0	66	0	2874	1	When you saw the <b>object</b>,   to what <b>degree (0-100%)</b> did you expect the <b>unpleasant sound to occur</b>?	-16	9	Cue9.jpg	-16	0	0	0
9	2023-04-04	08:42:35	09:21:25	09:21:25:943	111	1	Expectancy_rating	fixation	0	5	500	0	0	1	495	1	+	-9	0	0	0	0	0	0
9	2023-04-04	08:42:35	09:21:30	09:21:30:07	111	2	Expectancy_rating	expectancy_rating	0	500	0	0	0	0	5038	1	When you saw the <b>object</b>,   to what <b>degree (0-100%)</b> did you expect the <b>unpleasant sound to occur</b>?	-16	20	Cue20.jpg	-16	0	0	0
9	2023-04-04	08:42:35	09:21:32	09:21:32:010	112	1	Expectancy_rating	fixation	0	5	1500	0	0	1	1495	1	+	-8	0	0	0	0	0	0
9	2023-04-04	08:42:35	09:21:35	09:21:35:741	112	2	Expectancy_rating	expectancy_rating	0	1500	0	0	72	0	3707	1	When you saw the <b>object</b>,   to what <b>degree (0-100%)</b> did you expect the <b>unpleasant sound to occur</b>?	-16	17	Cue17.jpg	-16	0	0	0
9	2023-04-04	08:42:35	09:21:38	09:21:38:744	113	1	Expectancy_rating	fixation	0	5	1500	0	0	1	1495	1	+	-7	0	0	0	0	0	0
9	2023-04-04	08:42:35	09:21:43	09:21:43:258	113	2	Expectancy_rating	expectancy_rating	0	1000	0	0	7	0	4461	1	When you saw the <b>object</b>,   to what <b>degree (0-100%)</b> did you expect the <b>unpleasant sound to occur</b>?	-16	16	Cue16.jpg	-16	0	0	0
9	2023-04-04	08:42:35	09:21:59	09:21:59:277	114	1	continue_TNT	continue_TNT	0	5	0	0	0	0	15000	1	<center> <br><br><br> We will now continue with the next block of the attention task.   <br><br><br><center>Keep your fingers balanced on the <b>1, 2 and 3 </b>on the keyboard throughout the task   <br><br>to give the rating how well you were <b>able to think</b> or <b>not think</b> (1 = NEVER, 2 = BRIEFLY, 3 = OFTEN).  <br><br><br><br> <b>Press</b> the <b>button</b> on the <b>watch</b> for 1 second before you start!	-16	0	0	0	0	0	0
9	2023-04-04	08:42:35	09:21:59	09:21:59:779	115	1	TNT_NoThink_CSp	fixation	0	5	500	0	0	1	495	1	+	-8	0	0	0	0	0	0
9	2023-04-04	08:42:35	09:22:00	09:22:00:795	115	2	TNT_NoThink_CSp	NoThink	0	5	0	0	0	0	1000	1	DON'T THINK	-16	0	0	0	0	0	0
9	2023-04-04	08:42:35	09:22:05	09:22:05:812	115	3	TNT_NoThink_CSp	TNT_NoThink_CSp	0	5	0	0	0	0	5000	1	Cue24.jpg	-16	0	0	0	0	0	0
9	2023-04-04	08:42:35	09:22:07	09:22:07:925	115	4	TNT_NoThink_CSp	Intrusion	0	1000	3000	0	79	1	1097	1	How <b>often</b> did you <b>think</b> about the <b>scene</b>?   <center><br><b>NEVER (1)    BRIEFLY (2)   OFTEN (3) </b>	-16	0	0	0	0	0	0
9	2023-04-04	08:42:35	09:22:09	09:22:09:816	116	1	TNT_NoThink_CSp	fixation	0	5	1000	0	0	1	995	1	+	-16	0	0	0	0	0	0
9	2023-04-04	08:42:35	09:22:10	09:22:10:829	116	2	TNT_NoThink_CSp	NoThink	0	5	0	0	0	0	1000	1	DON'T THINK	-16	0	0	0	0	0	0
9	2023-04-04	08:42:35	09:22:15	09:22:15:845	116	3	TNT_NoThink_CSp	TNT_NoThink_CSp	0	5	0	0	0	0	5000	3	Cue32.jpg	-16	0	0	0	0	0	0
9	2023-04-04	08:42:35	09:22:16	09:22:16:317	116	4	TNT_NoThink_CSp	Intrusion	0	500	3000	0	80	1	455	1	How <b>often</b> did you <b>think</b> about the <b>scene</b>?   <center><br><b>NEVER (1)    BRIEFLY (2)   OFTEN (3) </b>	-16	0	0	0	0	0	0
9	2023-04-04	08:42:35	09:22:19	09:22:19:349	117	1	TNT_Think_CSp	fixation	0	5	500	0	0	1	495	1	+	-8	0	0	0	0	0	0
9	2023-04-04	08:42:35	09:22:20	09:22:20:362	117	2	TNT_Think_CSp	Think	0	5	0	0	0	0	1000	1	THINK	-16	0	0	0	0	0	0
9	2023-04-04	08:42:35	09:22:25	09:22:25:379	117	3	TNT_Think_CSp	TNT_Think_CSp	0	5	0	0	0	0	5000	5	Cue23.jpg	-16	0	0	0	0	0	0
9	2023-04-04	08:42:35	09:22:26	09:22:26:045	117	4	TNT_Think_CSp	Intrusion	0	1500	3000	0	81	1	649	1	How <b>often</b> did you <b>think</b> about the <b>scene</b>?   <center><br><b>NEVER (1)    BRIEFLY (2)   OFTEN (3) </b>	-16	0	0	0	0	0	0
9	2023-04-04	08:42:35	09:22:29	09:22:29:383	118	1	TNT_Think_CSm	fixation	0	5	1000	0	0	1	995	1	+	-8	0	0	0	0	0	0
9	2023-04-04	08:42:35	09:22:30	09:22:30:396	118	2	TNT_Think_CSm	Think	0	5	0	0	0	0	1000	1	THINK	-16	0	0	0	0	0	0
9	2023-04-04	08:42:35	09:22:35	09:22:35:413	118	3	TNT_Think_CSm	TNT_Think_CSm	0	5	0	0	0	0	5000	5	Cue15.jpg	-16	0	0	0	0	0	0
9	2023-04-04	08:42:35	09:22:36	09:22:36:461	118	4	TNT_Think_CSm	Intrusion	0	1500	3000	0	81	1	1031	1	How <b>often</b> did you <b>think</b> about the <b>scene</b>?   <center><br><b>NEVER (1)    BRIEFLY (2)   OFTEN (3) </b>	-16	0	0	0	0	0	0
9	2023-04-04	08:42:35	09:22:40	09:22:40:917	119	1	TNT_NoThink_CSm	fixation	0	5	1500	0	0	1	1495	1	+	-9	0	0	0	0	0	0
9	2023-04-04	08:42:35	09:22:41	09:22:41:930	119	2	TNT_NoThink_CSm	NoThink	0	5	0	0	0	0	1000	1	DON'T THINK	-16	0	0	0	0	0	0
9	2023-04-04	08:42:35	09:22:46	09:22:46:947	119	3	TNT_NoThink_CSm	TNT_NoThink_CSm	0	5	0	0	0	0	5000	6	Cue11.jpg	-16	0	0	0	0	0	0
9	2023-04-04	08:42:35	09:22:47	09:22:47:957	119	4	TNT_NoThink_CSm	Intrusion	0	500	3000	0	79	1	993	1	How <b>often</b> did you <b>think</b> about the <b>scene</b>?   <center><br><b>NEVER (1)    BRIEFLY (2)   OFTEN (3) </b>	-16	0	0	0	0	0	0
9	2023-04-04	08:42:35	09:22:50	09:22:50:450	120	1	TNT_Object_CSm	fixation	0	5	1500	0	0	1	1495	1	+	-8	0	0	0	0	0	0
9	2023-04-04	08:42:35	09:22:51	09:22:51:464	120	2	TNT_Object_CSm	Passive	0	5	0	0	0	0	1000	1	VIEW	-16	0	0	0	0	0	0
9	2023-04-04	08:42:35	09:22:56	09:22:56:481	120	3	TNT_Object_CSm	TNT_Object_CSm	0	500	0	0	0	0	5000	3	Object8.jpg	-16	0	0	0	0	0	0
9	2023-04-04	08:42:35	09:22:57	09:22:57:480	121	1	TNT_Object_CSp	fixation	0	5	500	0	0	1	495	1	+	-8	0	0	0	0	0	0
9	2023-04-04	08:42:35	09:22:58	09:22:58:498	121	2	TNT_Object_CSp	Passive	0	5	0	0	0	0	1000	1	VIEW	-16	0	0	0	0	0	0
9	2023-04-04	08:42:35	09:23:03	09:23:03:515	121	3	TNT_Object_CSp	TNT_Object_CSp	0	500	0	0	0	0	5000	1	Object2.jpg	-16	0	0	0	0	0	0
9	2023-04-04	08:42:35	09:23:05	09:23:05:013	122	1	TNT_Think_CSm	fixation	0	5	1000	0	0	1	995	1	+	-8	0	0	0	0	0	0
9	2023-04-04	08:42:35	09:23:06	09:23:06:032	122	2	TNT_Think_CSm	Think	0	5	0	0	0	0	1000	1	THINK	-16	0	0	0	0	0	0
9	2023-04-04	08:42:35	09:23:11	09:23:11:049	122	3	TNT_Think_CSm	TNT_Think_CSm	0	5	0	0	0	0	5000	6	Cue5.jpg	-16	0	0	0	0	0	0
9	2023-04-04	08:42:35	09:23:12	09:23:12:125	122	4	TNT_Think_CSm	Intrusion	0	1000	3000	0	81	1	1060	1	How <b>often</b> did you <b>think</b> about the <b>scene</b>?   <center><br><b>NEVER (1)    BRIEFLY (2)   OFTEN (3) </b>	-16	0	0	0	0	0	0
9	2023-04-04	08:42:35	09:23:14	09:23:14:552	123	1	TNT_NoThink_CSp	fixation	0	5	500	0	0	1	495	1	+	-8	0	0	0	0	0	0
9	2023-04-04	08:42:35	09:23:15	09:23:15:566	123	2	TNT_NoThink_CSp	NoThink	0	5	0	0	0	0	1000	1	DON'T THINK	-16	0	0	0	0	0	0
9	2023-04-04	08:42:35	09:23:20	09:23:20:583	123	3	TNT_NoThink_CSp	TNT_NoThink_CSp	0	5	0	0	0	0	5000	6	Cue28.jpg	-16	0	0	0	0	0	0
9	2023-04-04	08:42:35	09:23:21	09:23:21:405	123	4	TNT_NoThink_CSp	Intrusion	0	1500	3000	0	79	1	804	1	How <b>often</b> did you <b>think</b> about the <b>scene</b>?   <center><br><b>NEVER (1)    BRIEFLY (2)   OFTEN (3) </b>	-16	0	0	0	0	0	0
9	2023-04-04	08:42:35	09:23:24	09:23:24:587	124	1	TNT_NoThink_CSp	fixation	0	5	1000	0	0	1	995	1	+	-8	0	0	0	0	0	0
9	2023-04-04	08:42:35	09:23:25	09:23:25:600	124	2	TNT_NoThink_CSp	NoThink	0	5	0	0	0	0	1000	1	DON'T THINK	-16	0	0	0	0	0	0
9	2023-04-04	08:42:35	09:23:30	09:23:30:617	124	3	TNT_NoThink_CSp	TNT_NoThink_CSp	0	5	0	0	0	0	5000	5	Cue30.jpg	-16	0	0	0	0	0	0
9	2023-04-04	08:42:35	09:23:31	09:23:31:613	124	4	TNT_NoThink_CSp	Intrusion	0	1000	3000	0	79	1	978	1	How <b>often</b> did you <b>think</b> about the <b>scene</b>?   <center><br><b>NEVER (1)    BRIEFLY (2)   OFTEN (3) </b>	-16	0	0	0	0	0	0
9	2023-04-04	08:42:35	09:23:35	09:23:35:121	125	1	TNT_Think_CSp	fixation	0	5	1500	0	0	1	1495	1	+	-8	0	0	0	0	0	0
9	2023-04-04	08:42:35	09:23:36	09:23:36:134	125	2	TNT_Think_CSp	Think	0	5	0	0	0	0	1000	1	THINK	-16	0	0	0	0	0	0
9	2023-04-04	08:42:35	09:23:41	09:23:41:151	125	3	TNT_Think_CSp	TNT_Think_CSp	0	5	0	0	0	0	5000	4	Cue26.jpg	-16	0	0	0	0	0	0
9	2023-04-04	08:42:35	09:23:42	09:23:42:093	125	4	TNT_Think_CSp	Intrusion	0	500	3000	0	81	1	925	1	How <b>often</b> did you <b>think</b> about the <b>scene</b>?   <center><br><b>NEVER (1)    BRIEFLY (2)   OFTEN (3) </b>	-16	0	0	0	0	0	0
9	2023-04-04	08:42:35	09:23:45	09:23:45:155	126	1	TNT_Object_CSp	fixation	0	5	1000	0	0	1	995	1	+	-8	0	0	0	0	0	0
9	2023-04-04	08:42:35	09:23:46	09:23:46:168	126	2	TNT_Object_CSp	Passive	0	5	0	0	0	0	1000	1	VIEW	-16	0	0	0	0	0	0
9	2023-04-04	08:42:35	09:23:51	09:23:51:184	126	3	TNT_Object_CSp	TNT_Object_CSp	0	500	0	0	0	0	5000	3	Object5.jpg	-16	0	0	0	0	0	0
9	2023-04-04	08:42:35	09:23:53	09:23:53:184	127	1	TNT_Think_CSm	fixation	0	5	1500	0	0	1	1495	1	+	-8	0	0	0	0	0	0
9	2023-04-04	08:42:35	09:23:54	09:23:54:201	127	2	TNT_Think_CSm	Think	0	5	0	0	0	0	1000	1	THINK	-16	0	0	0	0	0	0
9	2023-04-04	08:42:35	09:23:59	09:23:59:218	127	3	TNT_Think_CSm	TNT_Think_CSm	0	5	0	0	0	0	5000	3	Cue12.jpg	-16	0	0	0	0	0	0
9	2023-04-04	08:42:35	09:24:01	09:24:01:861	127	4	TNT_Think_CSm	Intrusion	0	1000	3000	0	81	1	1626	1	How <b>often</b> did you <b>think</b> about the <b>scene</b>?   <center><br><b>NEVER (1)    BRIEFLY (2)   OFTEN (3) </b>	-16	0	0	0	0	0	0
9	2023-04-04	08:42:35	09:24:02	09:24:02:722	128	1	TNT_Think_CSp	fixation	0	5	500	0	0	1	495	1	+	-8	0	0	0	0	0	0
9	2023-04-04	08:42:35	09:24:03	09:24:03:735	128	2	TNT_Think_CSp	Think	0	5	0	0	0	0	1000	1	THINK	-16	0	0	0	0	0	0
9	2023-04-04	08:42:35	09:24:08	09:24:08:752	128	3	TNT_Think_CSp	TNT_Think_CSp	0	5	0	0	0	0	5000	2	Cue13.jpg	-16	0	0	0	0	0	0
9	2023-04-04	08:42:35	09:24:09	09:24:09:517	128	4	TNT_Think_CSp	Intrusion	0	500	3000	0	81	1	748	1	How <b>often</b> did you <b>think</b> about the <b>scene</b>?   <center><br><b>NEVER (1)    BRIEFLY (2)   OFTEN (3) </b>	-16	0	0	0	0	0	0
9	2023-04-04	08:42:35	09:24:13	09:24:13:257	129	1	TNT_Think_CSm	fixation	0	5	1500	0	0	1	1495	1	+	-9	0	0	0	0	0	0
9	2023-04-04	08:42:35	09:24:14	09:24:14:269	129	2	TNT_Think_CSm	Think	0	5	0	0	0	0	1000	1	THINK	-16	0	0	0	0	0	0
9	2023-04-04	08:42:35	09:24:19	09:24:19:286	129	3	TNT_Think_CSm	TNT_Think_CSm	0	5	0	0	0	0	5000	1	Cue19.jpg	-16	0	0	0	0	0	0
9	2023-04-04	08:42:35	09:24:20	09:24:20:013	129	4	TNT_Think_CSm	Intrusion	0	1500	3000	0	81	1	710	1	How <b>often</b> did you <b>think</b> about the <b>scene</b>?   <center><br><b>NEVER (1)    BRIEFLY (2)   OFTEN (3) </b>	-16	0	0	0	0	0	0
9	2023-04-04	08:42:35	09:24:22	09:24:22:789	130	1	TNT_Object_CSm	fixation	0	5	500	0	0	1	495	1	+	-1	0	0	0	0	0	0
9	2023-04-04	08:42:35	09:24:23	09:24:23:803	130	2	TNT_Object_CSm	Passive	0	5	0	0	0	0	1000	1	VIEW	-16	0	0	0	0	0	0
9	2023-04-04	08:42:35	09:24:28	09:24:28:820	130	3	TNT_Object_CSm	TNT_Object_CSm	0	500	0	0	0	0	5000	2	Object6.jpg	-16	0	0	0	0	0	0
9	2023-04-04	08:42:35	09:24:30	09:24:30:319	131	1	TNT_Object_CSp	fixation	0	5	1000	0	0	1	995	1	+	-4	0	0	0	0	0	0
9	2023-04-04	08:42:35	09:24:31	09:24:31:337	131	2	TNT_Object_CSp	Passive	0	5	0	0	0	0	1000	1	VIEW	-16	0	0	0	0	0	0
9	2023-04-04	08:42:35	09:24:36	09:24:36:354	131	3	TNT_Object_CSp	TNT_Object_CSp	0	1000	0	0	0	0	5000	4	Object1.jpg	-16	0	0	0	0	0	0
9	2023-04-04	08:42:35	09:24:38	09:24:38:852	132	1	TNT_NoThink_CSp	fixation	0	5	500	0	0	1	495	1	+	-7	0	0	0	0	0	0
9	2023-04-04	08:42:35	09:24:39	09:24:39:871	132	2	TNT_NoThink_CSp	NoThink	0	5	0	0	0	0	1000	1	DON'T THINK	-16	0	0	0	0	0	0
9	2023-04-04	08:42:35	09:24:44	09:24:44:888	132	3	TNT_NoThink_CSp	TNT_NoThink_CSp	0	5	0	0	0	0	5000	2	Cue33.jpg	-16	0	0	0	0	0	0
9	2023-04-04	08:42:35	09:24:45	09:24:45:645	132	4	TNT_NoThink_CSp	Intrusion	0	500	3000	0	79	1	1740	1	How <b>often</b> did you <b>think</b> about the <b>scene</b>?   <center><br><b>NEVER (1)    BRIEFLY (2)   OFTEN (3) </b>	-16	0	0	0	0	0	0
9	2023-04-04	08:42:35	09:24:48	09:24:48:391	133	1	TNT_Think_CSm	fixation	0	5	1500	0	0	1	1495	1	+	-9	0	0	0	0	0	0
9	2023-04-04	08:42:35	09:24:49	09:24:49:405	133	2	TNT_Think_CSm	Think	0	5	0	0	0	0	1000	1	THINK	-16	0	0	0	0	0	0
9	2023-04-04	08:42:35	09:24:54	09:24:54:422	133	3	TNT_Think_CSm	TNT_Think_CSm	0	5	0	0	0	0	5000	2	Cue3.jpg	-16	0	0	0	0	0	0
