subject	date	time	currenttime	currenttime_plus_ms	blocknum	trialnum	blockcode	trialcode	pretrialpause	posttrialpause	trialduration	trialtimeout	response	correct	latency	stimulusnumber1	stimulusitem1	stimulusonset1	stimulusnumber2	stimulusitem2	stimulusonset2	stimulusnumber3	stimulusitem3	stimulusonset3
17	2023-04-18	11:46:38	11:47:19	11:47:19:848	1	1	countdown	instructions	0	5	0	0	57	0	2584	1	<center><br><br> <b>WATCH CALLIBRATION</b>.                <br><br><br><br>In a couple of seconds a <b>countdown</b> will start that counts down from 3 to 1,       <br><br>after which the screen will show the instruction <b>PRESS BUTTON</b>.       <br><br><b>As soon as you see that screen</b>, you must shortly press the button on your watch.       <br><br> <br><br> Press SPACE  to continue.	-16	0	0	0	0	0	0
17	2023-04-18	11:46:38	11:47:21	11:47:21:880	1	2	countdown	countdown_3	0	5	0	0	0	0	1000	1	3	-16	0	0	0	0	0	0
17	2023-04-18	11:46:38	11:47:22	11:47:22:897	1	3	countdown	countdown_2	0	5	0	0	0	0	1000	1	2	-16	0	0	0	0	0	0
17	2023-04-18	11:46:38	11:47:23	11:47:23:913	1	4	countdown	countdown_1	0	5	0	0	0	0	1000	1	1	-16	0	0	0	0	0	0
17	2023-04-18	11:46:38	11:47:24	11:47:24:930	1	5	countdown	press_button	0	5	0	0	0	0	1000	1	PRESS BUTTON NOW	-16	0	0	0	0	0	0
17	2023-04-18	11:46:38	11:50:31	11:50:31:045	2	1	Rest	Rest	0	5	0	0	0	0	180000	1	+	-9	0	0	0	0	0	0
17	2023-04-18	11:46:38	11:50:39	11:50:39:803	3	1	countdown	instructions	0	5	0	0	57	0	8714	1	<center><br><br> <b>WATCH CALLIBRATION</b>.                <br><br><br><br>In a couple of seconds a <b>countdown</b> will start that counts down from 3 to 1,       <br><br>after which the screen will show the instruction <b>PRESS BUTTON</b>.       <br><br><b>As soon as you see that screen</b>, you must shortly press the button on your watch.       <br><br> <br><br> Press SPACE  to continue.	-4	0	0	0	0	0	0
17	2023-04-18	11:46:38	11:50:40	11:50:40:839	3	2	countdown	countdown_3	0	5	0	0	0	0	1000	1	3	-8	0	0	0	0	0	0
17	2023-04-18	11:46:38	11:50:41	11:50:41:856	3	3	countdown	countdown_2	0	5	0	0	0	0	1000	1	2	-16	0	0	0	0	0	0
17	2023-04-18	11:46:38	11:50:42	11:50:42:872	3	4	countdown	countdown_1	0	5	0	0	0	0	1000	1	1	-16	0	0	0	0	0	0
17	2023-04-18	11:46:38	11:50:43	11:50:43:889	3	5	countdown	press_button	0	5	0	0	0	0	1000	1	PRESS BUTTON NOW	-16	0	0	0	0	0	0
17	2023-04-18	11:46:38	11:51:55	11:51:55:502	2	1	Reminder_Objects_CSm	fixation	0	5	500	0	0	1	495	1	+	-9	0	0	0	0	0	0
17	2023-04-18	11:46:38	11:52:00	11:52:00:536	2	2	Reminder_Objects_CSm	Objects_CSm	0	5	0	0	0	0	5000	3	Object1.jpg	-8	0	0	0	0	0	0
17	2023-04-18	11:46:38	11:52:07	11:52:07:417	2	3	Reminder_Objects_CSm	expectancy_object	0	1000	0	0	0	0	6829	1	When you saw the <b>object</b>,   to what <b>degree (0-100%)</b> did you expect the <b>unpleasant sound to occur</b>?	3	0	0	0	0	0	0
17	2023-04-18	11:46:38	11:52:09	11:52:09:918	3	1	Reminder_NoThink_CSm	fixation	0	5	1500	0	0	1	1495	1	+	-13	0	0	0	0	0	0
17	2023-04-18	11:46:38	11:52:14	11:52:14:937	3	2	Reminder_NoThink_CSm	NoThink_CSm	0	5	0	0	0	0	5000	1	+	-16	4	Cue34.jpg	-16	4	Target34.jpg	-16
17	2023-04-18	11:46:38	11:52:19	11:52:19:135	3	3	Reminder_NoThink_CSm	valence	0	5	0	0	20	0	5133	1	I found these images to be...	-8	0	0	0	0	0	0
17	2023-04-18	11:46:38	11:52:30	11:52:30:836	3	4	Reminder_NoThink_CSm	expectancy	0	1000	0	0	30	0	10661	1	When you saw the <b>object-scene</b>,   to what <b>degree (0-100%)</b> did you expect the <b>unpleasant sound to occur</b>?	-11	0	0	0	0	0	0
17	2023-04-18	11:46:38	11:52:32	11:52:32:835	4	1	Reminder_Baseline_CSp	fixation	0	5	1000	0	0	1	995	1	+	-14	0	0	0	0	0	0
17	2023-04-18	11:46:38	11:52:37	11:52:37:853	4	2	Reminder_Baseline_CSp	Baseline_CSp	0	5	0	0	0	0	5000	1	+	-16	1	Cue13.jpg	-16	1	Target13.jpg	-16
17	2023-04-18	11:46:38	11:52:44	11:52:44:770	4	3	Reminder_Baseline_CSp	valence	0	5	0	0	60	0	6895	1	I found these images to be...	-16	0	0	0	0	0	0
17	2023-04-18	11:46:38	11:52:50	11:52:50:571	4	4	Reminder_Baseline_CSp	expectancy	0	500	0	0	20	0	5762	1	When you saw the <b>object-scene</b>,   to what <b>degree (0-100%)</b> did you expect the <b>unpleasant sound to occur</b>?	-9	0	0	0	0	0	0
17	2023-04-18	11:46:38	11:52:51	11:52:51:070	5	1	Reminder_Baseline_CSm	fixation	0	5	1000	0	0	1	995	1	+	-15	0	0	0	0	0	0
17	2023-04-18	11:46:38	11:52:56	11:52:56:087	5	2	Reminder_Baseline_CSm	Baseline_CSm	0	5	0	0	0	0	5000	1	+	-16	3	Cue2.jpg	-16	3	Target2.jpg	-16
17	2023-04-18	11:46:38	11:53:00	11:53:00:137	5	3	Reminder_Baseline_CSm	valence	0	5	0	0	0	0	3997	1	I found these images to be...	-16	0	0	0	0	0	0
17	2023-04-18	11:46:38	11:53:05	11:53:05:571	5	4	Reminder_Baseline_CSm	expectancy	0	1500	0	0	40	0	4386	1	When you saw the <b>object-scene</b>,   to what <b>degree (0-100%)</b> did you expect the <b>unpleasant sound to occur</b>?	-11	0	0	0	0	0	0
17	2023-04-18	11:46:38	11:53:08	11:53:08:572	6	1	Reminder_Think_CSp	fixation	0	5	1500	0	0	1	1495	1	+	-15	0	0	0	0	0	0
17	2023-04-18	11:46:38	11:53:13	11:53:13:588	6	2	Reminder_Think_CSp	Think_CSp	0	5	0	0	0	0	5000	1	+	-16	3	Cue16.jpg	-16	3	Target16.jpg	-16
17	2023-04-18	11:46:38	11:53:18	11:53:18:706	6	3	Reminder_Think_CSp	valence	0	5	0	0	30	0	5096	1	I found these images to be...	-16	0	0	0	0	0	0
17	2023-04-18	11:46:38	11:53:36	11:53:36:474	6	4	Reminder_Think_CSp	expectancy	0	1500	0	0	30	0	17722	1	When you saw the <b>object-scene</b>,   to what <b>degree (0-100%)</b> did you expect the <b>unpleasant sound to occur</b>?	-12	0	0	0	0	0	0
17	2023-04-18	11:46:38	11:53:38	11:53:38:474	7	1	Reminder_Objects_CSp	fixation	0	5	500	0	0	1	495	1	+	-15	0	0	0	0	0	0
17	2023-04-18	11:46:38	11:53:43	11:53:43:490	7	2	Reminder_Objects_CSp	Objects_CSp	0	5	0	0	0	0	5000	1	Object5.jpg	-16	0	0	0	0	0	0
17	2023-04-18	11:46:38	11:53:48	11:53:48:324	7	3	Reminder_Objects_CSp	expectancy_object	0	1500	0	0	80	0	4810	1	When you saw the <b>object</b>,   to what <b>degree (0-100%)</b> did you expect the <b>unpleasant sound to occur</b>?	-16	0	0	0	0	0	0
17	2023-04-18	11:46:38	11:53:51	11:53:51:324	8	1	Reminder_Think_CSm	fixation	0	5	1500	0	0	1	1495	1	+	-13	0	0	0	0	0	0
17	2023-04-18	11:46:38	11:53:56	11:53:56:344	8	2	Reminder_Think_CSm	Think_CSm	0	5	0	0	0	0	5000	1	+	-16	2	Cue28.jpg	-16	2	Target28.jpg	-16
17	2023-04-18	11:46:38	11:53:58	11:53:58:641	8	3	Reminder_Think_CSm	valence	0	5	0	0	50	0	2248	1	I found these images to be...	-16	0	0	0	0	0	0
17	2023-04-18	11:46:38	11:54:00	11:54:00:797	8	4	Reminder_Think_CSm	expectancy	0	500	0	0	30	0	2122	1	When you saw the <b>object-scene</b>,   to what <b>degree (0-100%)</b> did you expect the <b>unpleasant sound to occur</b>?	-7	0	0	0	0	0	0
17	2023-04-18	11:46:38	11:54:01	11:54:01:796	9	1	Reminder_Baseline_CSp	fixation	0	5	500	0	0	1	495	1	+	-15	0	0	0	0	0	0
17	2023-04-18	11:46:38	11:54:06	11:54:06:808	9	2	Reminder_Baseline_CSp	Baseline_CSp	0	5	0	0	0	0	5000	1	+	-16	6	Cue8.jpg	-16	6	Target8.jpg	-16
17	2023-04-18	11:46:38	11:54:10	11:54:10:542	9	3	Reminder_Baseline_CSp	valence	0	5	0	0	40	0	3684	1	I found these images to be...	-16	0	0	0	0	0	0
17	2023-04-18	11:46:38	11:54:13	11:54:13:593	9	4	Reminder_Baseline_CSp	expectancy	0	1000	0	0	90	0	3006	1	When you saw the <b>object-scene</b>,   to what <b>degree (0-100%)</b> did you expect the <b>unpleasant sound to occur</b>?	-12	0	0	0	0	0	0
17	2023-04-18	11:46:38	11:54:15	11:54:15:592	10	1	Reminder_Baseline_CSm	fixation	0	5	1000	0	0	1	995	1	+	-14	0	0	0	0	0	0
17	2023-04-18	11:46:38	11:54:20	11:54:20:609	10	2	Reminder_Baseline_CSm	Baseline_CSm	0	5	0	0	0	0	5000	1	+	-16	2	Cue7.jpg	-16	2	Target7.jpg	-16
17	2023-04-18	11:46:38	11:54:25	11:54:25:210	10	3	Reminder_Baseline_CSm	valence	0	5	0	0	10	0	5579	1	I found these images to be...	-16	0	0	0	0	0	0
17	2023-04-18	11:46:38	11:54:32	11:54:32:576	10	4	Reminder_Baseline_CSm	expectancy	0	500	0	0	20	0	6322	1	When you saw the <b>object-scene</b>,   to what <b>degree (0-100%)</b> did you expect the <b>unpleasant sound to occur</b>?	-12	0	0	0	0	0	0
17	2023-04-18	11:46:38	11:54:34	11:54:34:575	11	1	Reminder_Baseline_CSp	fixation	0	5	1500	0	0	1	1495	1	+	-15	0	0	0	0	0	0
17	2023-04-18	11:46:38	11:54:39	11:54:39:594	11	2	Reminder_Baseline_CSp	Baseline_CSp	0	5	0	0	0	0	5000	1	+	-14	5	Cue33.jpg	-14	5	Target33.jpg	-14
17	2023-04-18	11:46:38	11:54:44	11:54:44:694	11	3	Reminder_Baseline_CSp	valence	0	5	0	0	0	0	5075	1	I found these images to be...	-16	0	0	0	0	0	0
17	2023-04-18	11:46:38	11:54:48	11:54:48:911	11	4	Reminder_Baseline_CSp	expectancy	0	1500	0	0	90	0	4174	1	When you saw the <b>object-scene</b>,   to what <b>degree (0-100%)</b> did you expect the <b>unpleasant sound to occur</b>?	-12	0	0	0	0	0	0
17	2023-04-18	11:46:38	11:54:51	11:54:51:410	12	1	Reminder_Think_CSm	fixation	0	5	1000	0	0	1	995	1	+	-15	0	0	0	0	0	0
17	2023-04-18	11:46:38	11:54:56	11:54:56:428	12	2	Reminder_Think_CSm	Think_CSm	0	5	0	0	0	0	5000	1	+	-14	5	Cue28.jpg	-14	5	Target28.jpg	-14
17	2023-04-18	11:46:38	11:55:02	11:55:02:162	12	3	Reminder_Think_CSm	valence	0	5	0	0	40	0	6704	1	I found these images to be...	-16	0	0	0	0	0	0
17	2023-04-18	11:46:38	11:55:07	11:55:07:946	12	4	Reminder_Think_CSm	expectancy	0	1000	0	0	10	0	4738	1	When you saw the <b>object-scene</b>,   to what <b>degree (0-100%)</b> did you expect the <b>unpleasant sound to occur</b>?	-12	0	0	0	0	0	0
17	2023-04-18	11:46:38	11:55:09	11:55:09:445	13	1	Reminder_NoThink_CSp	fixation	0	5	500	0	0	1	495	1	+	-15	0	0	0	0	0	0
17	2023-04-18	11:46:38	11:55:14	11:55:14:462	13	2	Reminder_NoThink_CSp	NoThink_CSp	0	5	0	0	0	0	5000	1	+	-14	3	Cue1.jpg	-14	3	Target1.jpg	-14
17	2023-04-18	11:46:38	11:55:17	11:55:17:146	13	3	Reminder_NoThink_CSp	valence	0	5	0	0	30	0	3654	1	I found these images to be...	-16	0	0	0	0	0	0
17	2023-04-18	11:46:38	11:55:23	11:55:23:347	13	4	Reminder_NoThink_CSp	expectancy	0	500	0	0	85	0	5162	1	When you saw the <b>object-scene</b>,   to what <b>degree (0-100%)</b> did you expect the <b>unpleasant sound to occur</b>?	-12	0	0	0	0	0	0
17	2023-04-18	11:46:38	11:55:25	11:55:25:346	14	1	Reminder_Think_CSp	fixation	0	5	1500	0	0	1	1495	1	+	-14	0	0	0	0	0	0
17	2023-04-18	11:46:38	11:55:30	11:55:30:363	14	2	Reminder_Think_CSp	Think_CSp	0	5	0	0	0	0	5000	1	+	-16	5	Cue10.jpg	-16	5	Target10.jpg	-16
17	2023-04-18	11:46:38	11:55:37	11:55:37:681	14	3	Reminder_Think_CSp	valence	0	5	0	0	10	0	7297	1	I found these images to be...	-16	0	0	0	0	0	0
17	2023-04-18	11:46:38	11:55:42	11:55:42:165	14	4	Reminder_Think_CSp	expectancy	0	1500	0	0	100	0	5435	1	When you saw the <b>object-scene</b>,   to what <b>degree (0-100%)</b> did you expect the <b>unpleasant sound to occur</b>?	-12	0	0	0	0	0	0
17	2023-04-18	11:46:38	11:55:44	11:55:44:164	15	1	Reminder_NoThink_CSm	fixation	0	5	500	0	0	1	495	1	+	-15	0	0	0	0	0	0
17	2023-04-18	11:46:38	11:55:49	11:55:49:181	15	2	Reminder_NoThink_CSm	NoThink_CSm	0	5	0	0	0	0	5000	1	+	-13	2	Cue20.jpg	-13	2	Target20.jpg	-13
17	2023-04-18	11:46:38	11:55:52	11:55:52:099	15	3	Reminder_NoThink_CSm	valence	0	5	0	0	20	0	2895	1	I found these images to be...	-16	0	0	0	0	0	0
17	2023-04-18	11:46:38	11:55:56	11:55:56:865	15	4	Reminder_NoThink_CSm	expectancy	0	1000	0	0	30	0	3730	1	When you saw the <b>object-scene</b>,   to what <b>degree (0-100%)</b> did you expect the <b>unpleasant sound to occur</b>?	-11	0	0	0	0	0	0
17	2023-04-18	11:46:38	11:55:58	11:55:58:864	16	1	Reminder_Think_CSm	fixation	0	5	1000	0	0	1	995	1	+	-15	0	0	0	0	0	0
17	2023-04-18	11:46:38	11:56:03	11:56:03:882	16	2	Reminder_Think_CSm	Think_CSm	0	5	0	0	0	0	5000	1	+	-16	6	Cue32.jpg	-16	6	Target32.jpg	-16
17	2023-04-18	11:46:38	11:56:06	11:56:06:516	16	3	Reminder_Think_CSm	valence	0	5	0	0	20	0	2603	1	I found these images to be...	-16	0	0	0	0	0	0
17	2023-04-18	11:46:38	11:56:08	11:56:08:516	16	4	Reminder_Think_CSm	expectancy	0	1500	0	0	0	0	1960	1	When you saw the <b>object-scene</b>,   to what <b>degree (0-100%)</b> did you expect the <b>unpleasant sound to occur</b>?	-12	0	0	0	0	0	0
17	2023-04-18	11:46:38	11:56:10	11:56:10:015	17	1	PracticeItems_Think	fixation	0	5	1000	0	0	1	995	1	+	-15	0	0	0	0	0	0
17	2023-04-18	11:46:38	11:56:15	11:56:15:033	17	2	PracticeItems_Think	PracticeItems_Think	0	5	0	0	0	0	5000	1	+	-16	1	Cue37.jpg	-16	1	Target37.jpg	-16
17	2023-04-18	11:46:38	11:56:20	11:56:20:550	17	3	PracticeItems_Think	valence	0	5	0	0	50	0	4492	1	I found these images to be...	-16	0	0	0	0	0	0
17	2023-04-18	11:46:38	11:56:21	11:56:21:967	17	4	PracticeItems_Think	expectancy	0	500	0	0	0	0	1374	1	When you saw the <b>object-scene</b>,   to what <b>degree (0-100%)</b> did you expect the <b>unpleasant sound to occur</b>?	-12	0	0	0	0	0	0
17	2023-04-18	11:46:38	11:56:23	11:56:23:968	18	1	Reminder_NoThink_CSp	fixation	0	5	1500	0	0	1	1495	1	+	-13	0	0	0	0	0	0
17	2023-04-18	11:46:38	11:56:28	11:56:28:986	18	2	Reminder_NoThink_CSp	NoThink_CSp	0	5	0	0	0	0	5000	1	+	-16	1	Cue24.jpg	-16	1	Target24.jpg	-16
17	2023-04-18	11:46:38	11:56:31	11:56:31:884	18	3	Reminder_NoThink_CSp	valence	0	5	0	0	40	0	2877	1	I found these images to be...	-16	0	0	0	0	0	0
17	2023-04-18	11:46:38	11:56:36	11:56:36:768	18	4	Reminder_NoThink_CSp	expectancy	0	1000	0	0	100	0	4848	1	When you saw the <b>object-scene</b>,   to what <b>degree (0-100%)</b> did you expect the <b>unpleasant sound to occur</b>?	-10	0	0	0	0	0	0
17	2023-04-18	11:46:38	11:56:37	11:56:37:267	19	1	Reminder_NoThink_CSp	fixation	0	5	500	0	0	1	495	1	+	-15	0	0	0	0	0	0
17	2023-04-18	11:46:38	11:56:42	11:56:42:284	19	2	Reminder_NoThink_CSp	NoThink_CSp	0	5	0	0	0	0	5000	1	+	-16	5	Cue14.jpg	-16	5	Target14.jpg	-16
17	2023-04-18	11:46:38	11:56:46	11:56:46:501	19	3	Reminder_NoThink_CSp	valence	0	5	0	0	31	0	3184	1	I found these images to be...	-16	0	0	0	0	0	0
17	2023-04-18	11:46:38	11:56:48	11:56:48:869	19	4	Reminder_NoThink_CSp	expectancy	0	1000	0	0	100	0	2319	1	When you saw the <b>object-scene</b>,   to what <b>degree (0-100%)</b> did you expect the <b>unpleasant sound to occur</b>?	-10	0	0	0	0	0	0
17	2023-04-18	11:46:38	11:56:50	11:56:50:368	20	1	Reminder_Think_CSp	fixation	0	5	500	0	0	1	495	1	+	-14	0	0	0	0	0	0
17	2023-04-18	11:46:38	11:56:55	11:56:55:385	20	2	Reminder_Think_CSp	Think_CSp	0	5	0	0	0	0	5000	1	+	-16	1	Cue9.jpg	-16	1	Target9.jpg	-16
17	2023-04-18	11:46:38	11:56:57	11:56:57:103	20	3	Reminder_Think_CSp	valence	0	5	0	0	30	0	2691	1	I found these images to be...	-16	0	0	0	0	0	0
17	2023-04-18	11:46:38	11:56:59	11:56:59:753	20	4	Reminder_Think_CSp	expectancy	0	500	0	0	100	0	1614	1	When you saw the <b>object-scene</b>,   to what <b>degree (0-100%)</b> did you expect the <b>unpleasant sound to occur</b>?	-12	0	0	0	0	0	0
17	2023-04-18	11:46:38	11:57:01	11:57:01:751	21	1	Reminder_NoThink_CSm	fixation	0	5	1500	0	0	1	1495	1	+	-15	0	0	0	0	0	0
17	2023-04-18	11:46:38	11:57:06	11:57:06:769	21	2	Reminder_NoThink_CSm	NoThink_CSm	0	5	0	0	0	0	5000	1	+	-13	5	Cue12.jpg	-13	5	Target12.jpg	-13
17	2023-04-18	11:46:38	11:57:08	11:57:08:919	21	3	Reminder_NoThink_CSm	valence	0	5	0	0	40	0	2099	1	I found these images to be...	-16	0	0	0	0	0	0
17	2023-04-18	11:46:38	11:57:10	11:57:10:519	21	4	Reminder_NoThink_CSm	expectancy	0	1500	0	0	0	0	1556	1	When you saw the <b>object-scene</b>,   to what <b>degree (0-100%)</b> did you expect the <b>unpleasant sound to occur</b>?	-12	0	0	0	0	0	0
17	2023-04-18	11:46:38	11:57:12	11:57:12:018	22	1	Reminder_NoThink_CSp	fixation	0	5	1000	0	0	1	995	1	+	-15	0	0	0	0	0	0
17	2023-04-18	11:46:38	11:57:17	11:57:17:037	22	2	Reminder_NoThink_CSp	NoThink_CSp	0	5	0	0	0	0	5000	1	+	-14	2	Cue35.jpg	-14	2	Target35.jpg	-14
17	2023-04-18	11:46:38	11:57:20	11:57:20:437	22	3	Reminder_NoThink_CSp	valence	0	5	0	0	30	0	2376	1	I found these images to be...	-16	0	0	0	0	0	0
17	2023-04-18	11:46:38	11:57:23	11:57:23:504	22	4	Reminder_NoThink_CSp	expectancy	0	1000	0	0	85	0	3023	1	When you saw the <b>object-scene</b>,   to what <b>degree (0-100%)</b> did you expect the <b>unpleasant sound to occur</b>?	0	0	0	0	0	0	0
17	2023-04-18	11:46:38	11:57:25	11:57:25:03	23	1	PracticeItems_NoThink	fixation	0	5	1500	0	0	1	1495	1	+	-14	0	0	0	0	0	0
17	2023-04-18	11:46:38	11:57:30	11:57:30:020	23	2	PracticeItems_NoThink	PracticeItems_NoThink	0	5	0	0	0	0	5000	1	+	-16	2	Cue40.jpg	-16	2	Target40.jpg	-16
17	2023-04-18	11:46:38	11:57:34	11:57:34:171	23	3	PracticeItems_NoThink	valence	0	5	0	0	40	0	4120	1	I found these images to be...	-16	0	0	0	0	0	0
17	2023-04-18	11:46:38	11:57:38	11:57:38:454	23	4	PracticeItems_NoThink	expectancy	0	500	0	0	90	0	3248	1	When you saw the <b>object-scene</b>,   to what <b>degree (0-100%)</b> did you expect the <b>unpleasant sound to occur</b>?	-12	0	0	0	0	0	0
17	2023-04-18	11:46:38	11:57:39	11:57:39:453	24	1	PracticeItems_Think	fixation	0	5	500	0	0	1	495	1	+	-15	0	0	0	0	0	0
17	2023-04-18	11:46:38	11:57:44	11:57:44:471	24	2	PracticeItems_Think	PracticeItems_Think	0	5	0	0	0	0	5000	1	+	-13	2	Cue38.jpg	-13	2	Target38.jpg	-13
17	2023-04-18	11:46:38	11:57:48	11:57:48:556	24	3	PracticeItems_Think	valence	0	5	0	0	0	0	4061	1	I found these images to be...	-16	0	0	0	0	0	0
17	2023-04-18	11:46:38	11:57:55	11:57:55:073	24	4	PracticeItems_Think	expectancy	0	1500	0	0	26	0	7472	1	When you saw the <b>object-scene</b>,   to what <b>degree (0-100%)</b> did you expect the <b>unpleasant sound to occur</b>?	-12	0	0	0	0	0	0
17	2023-04-18	11:46:38	11:57:58	11:57:58:572	25	1	Reminder_Think_CSp	fixation	0	5	1000	0	0	1	995	1	+	-15	0	0	0	0	0	0
17	2023-04-18	11:46:38	11:58:03	11:58:03:590	25	2	Reminder_Think_CSp	Think_CSp	0	5	0	0	0	0	5000	1	+	-16	6	Cue18.jpg	-16	6	Target18.jpg	-16
17	2023-04-18	11:46:38	11:58:05	11:58:05:790	25	3	Reminder_Think_CSp	valence	0	5	0	0	0	0	2175	1	I found these images to be...	-16	0	0	0	0	0	0
17	2023-04-18	11:46:38	11:58:14	11:58:14:957	25	4	Reminder_Think_CSp	expectancy	0	1500	0	0	0	0	9118	1	When you saw the <b>object-scene</b>,   to what <b>degree (0-100%)</b> did you expect the <b>unpleasant sound to occur</b>?	-12	0	0	0	0	0	0
17	2023-04-18	11:46:38	11:58:17	11:58:17:956	26	1	Reminder_Baseline_CSm	fixation	0	5	1500	0	0	1	1495	1	+	-15	0	0	0	0	0	0
17	2023-04-18	11:46:38	11:58:22	11:58:22:974	26	2	Reminder_Baseline_CSm	Baseline_CSm	0	5	0	0	0	0	5000	1	+	-14	4	Cue19.jpg	-14	4	Target19.jpg	-14
17	2023-04-18	11:46:38	11:58:26	11:58:26:407	26	3	Reminder_Baseline_CSm	valence	0	5	0	0	30	0	3382	1	I found these images to be...	-16	0	0	0	0	0	0
17	2023-04-18	11:46:38	11:58:30	11:58:30:108	26	4	Reminder_Baseline_CSm	expectancy	0	1000	0	0	30	0	4652	1	When you saw the <b>object-scene</b>,   to what <b>degree (0-100%)</b> did you expect the <b>unpleasant sound to occur</b>?	-12	0	0	0	0	0	0
17	2023-04-18	11:46:38	11:58:32	11:58:32:108	27	1	Reminder_Think_CSp	fixation	0	5	1000	0	0	1	995	1	+	-15	0	0	0	0	0	0
17	2023-04-18	11:46:38	11:58:37	11:58:37:125	27	2	Reminder_Think_CSp	Think_CSp	0	5	0	0	0	0	5000	1	+	-16	4	Cue5.jpg	-16	4	Target5.jpg	-16
17	2023-04-18	11:46:38	11:58:42	11:58:42:759	27	3	Reminder_Think_CSp	valence	0	5	0	0	31	0	4608	1	I found these images to be...	-16	0	0	0	0	0	0
17	2023-04-18	11:46:38	11:58:45	11:58:45:410	27	4	Reminder_Think_CSp	expectancy	0	500	0	0	100	0	2613	1	When you saw the <b>object-scene</b>,   to what <b>degree (0-100%)</b> did you expect the <b>unpleasant sound to occur</b>?	-12	0	0	0	0	0	0
17	2023-04-18	11:46:38	11:58:46	11:58:46:409	28	1	Reminder_Objects_CSm	fixation	0	5	500	0	0	1	495	1	+	-15	0	0	0	0	0	0
17	2023-04-18	11:46:38	11:58:51	11:58:51:426	28	2	Reminder_Objects_CSm	Objects_CSm	0	5	0	0	0	0	5000	2	Object2.jpg	-16	0	0	0	0	0	0
17	2023-04-18	11:46:38	11:58:54	11:58:54:643	28	3	Reminder_Objects_CSm	expectancy_object	0	500	0	0	0	0	3187	1	When you saw the <b>object</b>,   to what <b>degree (0-100%)</b> did you expect the <b>unpleasant sound to occur</b>?	-16	0	0	0	0	0	0
17	2023-04-18	11:46:38	11:58:55	11:58:55:643	29	1	Reminder_Baseline_CSp	fixation	0	5	500	0	0	1	495	1	+	-10	0	0	0	0	0	0
17	2023-04-18	11:46:38	11:59:00	11:59:00:662	29	2	Reminder_Baseline_CSp	Baseline_CSp	0	5	0	0	0	0	5000	1	+	-16	3	Cue23.jpg	-16	3	Target23.jpg	-16
17	2023-04-18	11:46:38	11:59:03	11:59:03:193	29	3	Reminder_Baseline_CSp	valence	0	5	0	0	30	0	3513	1	I found these images to be...	-16	0	0	0	0	0	0
17	2023-04-18	11:46:38	11:59:06	11:59:06:944	29	4	Reminder_Baseline_CSp	expectancy	0	1000	0	0	80	0	2714	1	When you saw the <b>object-scene</b>,   to what <b>degree (0-100%)</b> did you expect the <b>unpleasant sound to occur</b>?	-12	0	0	0	0	0	0
17	2023-04-18	11:46:38	11:59:09	11:59:09:442	30	1	Reminder_Objects_CSm	fixation	0	5	1500	0	0	1	1495	1	+	-15	0	0	0	0	0	0
17	2023-04-18	11:46:38	11:59:14	11:59:14:460	30	2	Reminder_Objects_CSm	Objects_CSm	0	5	0	0	0	0	5000	4	Object1.jpg	-14	0	0	0	0	0	0
17	2023-04-18	11:46:38	11:59:16	11:59:16:694	30	3	Reminder_Objects_CSm	expectancy_object	0	500	0	0	0	0	2184	1	When you saw the <b>object</b>,   to what <b>degree (0-100%)</b> did you expect the <b>unpleasant sound to occur</b>?	-16	0	0	0	0	0	0
17	2023-04-18	11:46:38	11:59:17	11:59:17:176	31	1	Reminder_Baseline_CSm	fixation	0	5	1000	0	0	1	995	1	+	-15	0	0	0	0	0	0
17	2023-04-18	11:46:38	11:59:22	11:59:22:194	31	2	Reminder_Baseline_CSm	Baseline_CSm	0	5	0	0	0	0	5000	1	+	-13	1	Cue15.jpg	-13	1	Target15.jpg	-13
17	2023-04-18	11:46:38	11:59:27	11:59:27:612	31	3	Reminder_Baseline_CSm	valence	0	5	0	0	30	0	4386	1	I found these images to be...	-16	0	0	0	0	0	0
17	2023-04-18	11:46:38	11:59:32	11:59:32:878	31	4	Reminder_Baseline_CSm	expectancy	0	1500	0	0	40	0	5201	1	When you saw the <b>object-scene</b>,   to what <b>degree (0-100%)</b> did you expect the <b>unpleasant sound to occur</b>?	-12	0	0	0	0	0	0
17	2023-04-18	11:46:38	11:59:35	11:59:35:861	32	1	Reminder_Think_CSm	fixation	0	5	1500	0	0	1	1495	1	+	-14	0	0	0	0	0	0
17	2023-04-18	11:46:38	11:59:40	11:59:40:879	32	2	Reminder_Think_CSm	Think_CSm	0	5	0	0	0	0	5000	1	+	-14	4	Cue30.jpg	-14	4	Target30.jpg	-14
17	2023-04-18	11:46:38	11:59:49	11:59:49:297	32	3	Reminder_Think_CSm	valence	0	5	0	0	27	0	8390	1	I found these images to be...	-16	0	0	0	0	0	0
17	2023-04-18	11:46:38	11:59:53	11:59:53:797	32	4	Reminder_Think_CSm	expectancy	0	500	0	0	61	0	4452	1	When you saw the <b>object-scene</b>,   to what <b>degree (0-100%)</b> did you expect the <b>unpleasant sound to occur</b>?	-11	0	0	0	0	0	0
17	2023-04-18	11:46:38	11:59:55	11:59:55:297	33	1	Reminder_NoThink_CSm	fixation	0	5	1000	0	0	1	995	1	+	-14	0	0	0	0	0	0
17	2023-04-18	11:46:38	12:00:00	12:00:00:314	33	2	Reminder_NoThink_CSm	NoThink_CSm	0	5	0	0	0	0	5000	1	+	-16	3	Cue3.jpg	-16	3	Target3.jpg	-16
17	2023-04-18	11:46:38	12:00:02	12:00:02:613	33	3	Reminder_NoThink_CSm	valence	0	5	0	0	30	0	2275	1	I found these images to be...	-16	0	0	0	0	0	0
17	2023-04-18	11:46:38	12:00:05	12:00:05:214	33	4	Reminder_NoThink_CSm	expectancy	0	1000	0	0	80	0	3558	1	When you saw the <b>object-scene</b>,   to what <b>degree (0-100%)</b> did you expect the <b>unpleasant sound to occur</b>?	-10	0	0	0	0	0	0
17	2023-04-18	11:46:38	12:00:07	12:00:07:713	34	1	Reminder_Baseline_CSp	fixation	0	5	500	0	0	1	495	1	+	-15	0	0	0	0	0	0
17	2023-04-18	11:46:38	12:00:12	12:00:12:731	34	2	Reminder_Baseline_CSp	Baseline_CSp	0	5	0	0	0	0	5000	1	+	-16	2	Cue17.jpg	-16	2	Target17.jpg	-16
17	2023-04-18	11:46:38	12:00:15	12:00:15:047	34	3	Reminder_Baseline_CSp	valence	0	5	0	0	30	0	3298	1	I found these images to be...	-16	0	0	0	0	0	0
17	2023-04-18	11:46:38	12:00:19	12:00:19:298	34	4	Reminder_Baseline_CSp	expectancy	0	500	0	0	80	0	3204	1	When you saw the <b>object-scene</b>,   to what <b>degree (0-100%)</b> did you expect the <b>unpleasant sound to occur</b>?	-11	0	0	0	0	0	0
17	2023-04-18	11:46:38	12:00:20	12:00:20:297	35	1	Reminder_NoThink_CSm	fixation	0	5	500	0	0	1	495	1	+	-15	0	0	0	0	0	0
17	2023-04-18	11:46:38	12:00:25	12:00:25:315	35	2	Reminder_NoThink_CSm	NoThink_CSm	0	5	0	0	0	0	5000	1	+	-13	1	Cue36.jpg	-13	1	Target36.jpg	-13
17	2023-04-18	11:46:38	12:00:27	12:00:27:115	35	3	Reminder_NoThink_CSm	valence	0	5	0	0	30	0	2770	1	I found these images to be...	-16	0	0	0	0	0	0
17	2023-04-18	11:46:38	12:00:29	12:00:29:532	35	4	Reminder_NoThink_CSm	expectancy	0	1500	0	0	0	0	1369	1	When you saw the <b>object-scene</b>,   to what <b>degree (0-100%)</b> did you expect the <b>unpleasant sound to occur</b>?	-9	0	0	0	0	0	0
17	2023-04-18	11:46:38	12:00:31	12:00:31:032	36	1	Reminder_Think_CSm	fixation	0	5	1000	0	0	1	995	1	+	-15	0	0	0	0	0	0
17	2023-04-18	11:46:38	12:00:36	12:00:36:049	36	2	Reminder_Think_CSm	Think_CSm	0	5	0	0	0	0	5000	1	+	-16	1	Cue27.jpg	-16	1	Target27.jpg	-16
17	2023-04-18	11:46:38	12:00:40	12:00:40:199	36	3	Reminder_Think_CSm	valence	0	5	0	0	30	0	4132	1	I found these images to be...	-16	0	0	0	0	0	0
17	2023-04-18	11:46:38	12:00:43	12:00:43:332	36	4	Reminder_Think_CSm	expectancy	0	500	0	0	80	0	2093	1	When you saw the <b>object-scene</b>,   to what <b>degree (0-100%)</b> did you expect the <b>unpleasant sound to occur</b>?	-12	0	0	0	0	0	0
17	2023-04-18	11:46:38	12:00:45	12:00:45:331	37	1	Reminder_Objects_CSp	fixation	0	5	1500	0	0	1	1495	1	+	-15	0	0	0	0	0	0
17	2023-04-18	11:46:38	12:00:50	12:00:50:350	37	2	Reminder_Objects_CSp	Objects_CSp	0	5	0	0	0	0	5000	2	Object6.jpg	-14	0	0	0	0	0	0
17	2023-04-18	11:46:38	12:00:52	12:00:52:300	37	3	Reminder_Objects_CSp	expectancy_object	0	1500	0	0	0	0	1919	1	When you saw the <b>object</b>,   to what <b>degree (0-100%)</b> did you expect the <b>unpleasant sound to occur</b>?	-16	0	0	0	0	0	0
17	2023-04-18	11:46:38	12:00:54	12:00:54:299	38	1	Reminder_NoThink_CSp	fixation	0	5	500	0	0	1	495	1	+	-15	0	0	0	0	0	0
17	2023-04-18	11:46:38	12:00:59	12:00:59:317	38	2	Reminder_NoThink_CSp	NoThink_CSp	0	5	0	0	0	0	5000	1	+	-16	6	Cue22.jpg	-16	6	Target22.jpg	-16
17	2023-04-18	11:46:38	12:01:02	12:01:02:051	38	3	Reminder_NoThink_CSp	valence	0	5	0	0	30	0	3704	1	I found these images to be...	-16	0	0	0	0	0	0
17	2023-04-18	11:46:38	12:01:12	12:01:12:684	38	4	Reminder_NoThink_CSp	expectancy	0	1000	0	0	50	0	9585	1	When you saw the <b>object-scene</b>,   to what <b>degree (0-100%)</b> did you expect the <b>unpleasant sound to occur</b>?	-12	0	0	0	0	0	0
17	2023-04-18	11:46:38	12:01:14	12:01:14:683	39	1	Reminder_Baseline_CSm	fixation	0	5	1000	0	0	1	995	1	+	-15	0	0	0	0	0	0
17	2023-04-18	11:46:38	12:01:19	12:01:19:701	39	2	Reminder_Baseline_CSm	Baseline_CSm	0	5	0	0	0	0	5000	1	+	-13	5	Cue21.jpg	-13	5	Target21.jpg	-13
17	2023-04-18	11:46:38	12:01:24	12:01:24:436	39	3	Reminder_Baseline_CSm	valence	0	5	0	0	20	0	4711	1	I found these images to be...	-16	0	0	0	0	0	0
17	2023-04-18	11:46:38	12:01:27	12:01:27:235	39	4	Reminder_Baseline_CSm	expectancy	0	1500	0	0	100	0	3760	1	When you saw the <b>object-scene</b>,   to what <b>degree (0-100%)</b> did you expect the <b>unpleasant sound to occur</b>?	-9	0	0	0	0	0	0
17	2023-04-18	11:46:38	12:01:30	12:01:30:236	40	1	PracticeItems_NoThink	fixation	0	5	1500	0	0	1	1495	1	+	-10	0	0	0	0	0	0
17	2023-04-18	11:46:38	12:01:35	12:01:35:255	40	2	PracticeItems_NoThink	PracticeItems_NoThink	0	5	0	0	0	0	5000	1	+	-16	1	Cue39.jpg	-16	1	Target39.jpg	-16
17	2023-04-18	11:46:38	12:01:39	12:01:39:086	40	3	PracticeItems_NoThink	valence	0	5	0	0	10	0	3784	1	I found these images to be...	-16	0	0	0	0	0	0
17	2023-04-18	11:46:38	12:01:42	12:01:42:903	40	4	PracticeItems_NoThink	expectancy	0	1000	0	0	85	0	2750	1	When you saw the <b>object-scene</b>,   to what <b>degree (0-100%)</b> did you expect the <b>unpleasant sound to occur</b>?	-12	0	0	0	0	0	0
17	2023-04-18	11:46:38	12:01:44	12:01:44:385	41	1	Reminder_Think_CSm	fixation	0	5	500	0	0	1	495	1	+	-15	0	0	0	0	0	0
17	2023-04-18	11:46:38	12:01:49	12:01:49:403	41	2	Reminder_Think_CSm	Think_CSm	0	5	0	0	0	0	5000	1	+	-14	3	Cue25.jpg	-14	3	Target25.jpg	-14
17	2023-04-18	11:46:38	12:01:52	12:01:52:671	41	3	Reminder_Think_CSm	valence	0	5	0	0	0	0	3241	1	I found these images to be...	-16	0	0	0	0	0	0
17	2023-04-18	11:46:38	12:01:54	12:01:54:271	41	4	Reminder_Think_CSm	expectancy	0	1500	0	0	70	0	2558	1	When you saw the <b>object-scene</b>,   to what <b>degree (0-100%)</b> did you expect the <b>unpleasant sound to occur</b>?	-12	0	0	0	0	0	0
17	2023-04-18	11:46:38	12:01:57	12:01:57:770	42	1	Reminder_Objects_CSp	fixation	0	5	1000	0	0	1	995	1	+	-15	0	0	0	0	0	0
17	2023-04-18	11:46:38	12:02:02	12:02:02:787	42	2	Reminder_Objects_CSp	Objects_CSp	0	5	0	0	0	0	5000	3	Object4.jpg	-16	0	0	0	0	0	0
17	2023-04-18	11:46:38	12:02:04	12:02:04:04	42	3	Reminder_Objects_CSp	expectancy_object	0	1000	0	0	100	0	2193	1	When you saw the <b>object</b>,   to what <b>degree (0-100%)</b> did you expect the <b>unpleasant sound to occur</b>?	-16	0	0	0	0	0	0
17	2023-04-18	11:46:38	12:02:07	12:02:07:503	43	1	Reminder_Baseline_CSm	fixation	0	5	1500	0	0	1	1495	1	+	-15	0	0	0	0	0	0
17	2023-04-18	11:46:38	12:02:12	12:02:12:521	43	2	Reminder_Baseline_CSm	Baseline_CSm	0	5	0	0	0	0	5000	1	+	-13	6	Cue31.jpg	-13	6	Target31.jpg	-13
17	2023-04-18	11:46:38	12:02:14	12:02:14:222	43	3	Reminder_Baseline_CSm	valence	0	5	0	0	0	0	2675	1	I found these images to be...	-16	0	0	0	0	0	0
17	2023-04-18	11:46:38	12:02:22	12:02:22:956	43	4	Reminder_Baseline_CSm	expectancy	0	500	0	0	10	0	7694	1	When you saw the <b>object-scene</b>,   to what <b>degree (0-100%)</b> did you expect the <b>unpleasant sound to occur</b>?	-12	0	0	0	0	0	0
17	2023-04-18	11:46:38	12:02:24	12:02:24:454	44	1	Reminder_NoThink_CSm	fixation	0	5	1000	0	0	1	995	1	+	-15	0	0	0	0	0	0
17	2023-04-18	11:46:38	12:02:29	12:02:29:474	44	2	Reminder_NoThink_CSm	NoThink_CSm	0	5	0	0	0	0	5000	1	+	-12	6	Cue36.jpg	-12	6	Target36.jpg	-12
17	2023-04-18	11:46:38	12:02:31	12:02:31:239	44	3	Reminder_NoThink_CSm	valence	0	5	0	0	30	0	2716	1	I found these images to be...	-16	0	0	0	0	0	0
17	2023-04-18	11:46:38	12:02:33	12:02:33:789	44	4	Reminder_NoThink_CSm	expectancy	0	1500	0	0	0	0	1508	1	When you saw the <b>object-scene</b>,   to what <b>degree (0-100%)</b> did you expect the <b>unpleasant sound to occur</b>?	-10	0	0	0	0	0	0
17	2023-04-18	11:46:38	12:02:35	12:02:35:788	45	1	Reminder_Objects_CSp	fixation	0	5	500	0	0	1	495	1	+	-15	0	0	0	0	0	0
17	2023-04-18	11:46:38	12:02:40	12:02:40:806	45	2	Reminder_Objects_CSp	Objects_CSp	0	5	0	0	0	0	5000	4	Object8.jpg	-14	0	0	0	0	0	0
17	2023-04-18	11:46:38	12:02:42	12:02:42:206	45	3	Reminder_Objects_CSp	expectancy_object	0	1500	0	0	100	0	2350	1	When you saw the <b>object</b>,   to what <b>degree (0-100%)</b> did you expect the <b>unpleasant sound to occur</b>?	-16	0	0	0	0	0	0
17	2023-04-18	11:46:38	12:02:45	12:02:45:189	46	1	Reminder_Think_CSp	fixation	0	5	1500	0	0	1	1495	1	+	-15	0	0	0	0	0	0
17	2023-04-18	11:46:38	12:02:50	12:02:50:207	46	2	Reminder_Think_CSp	Think_CSp	0	5	0	0	0	0	5000	1	+	-16	2	Cue4.jpg	-16	2	Target4.jpg	-16
17	2023-04-18	11:46:38	12:02:55	12:02:55:024	46	3	Reminder_Think_CSp	valence	0	5	0	0	30	0	4789	1	I found these images to be...	-16	0	0	0	0	0	0
17	2023-04-18	11:46:38	12:02:59	12:02:59:591	46	4	Reminder_Think_CSp	expectancy	0	1000	0	0	90	0	3524	1	When you saw the <b>object-scene</b>,   to what <b>degree (0-100%)</b> did you expect the <b>unpleasant sound to occur</b>?	-10	0	0	0	0	0	0
17	2023-04-18	11:46:38	12:03:01	12:03:01:090	47	1	Reminder_Objects_CSm	fixation	0	5	1500	0	0	1	1495	1	+	-15	0	0	0	0	0	0
17	2023-04-18	11:46:38	12:03:06	12:03:06:108	47	2	Reminder_Objects_CSm	Objects_CSm	0	5	0	0	0	0	5000	1	Object7.jpg	-16	0	0	0	0	0	0
17	2023-04-18	11:46:38	12:03:08	12:03:08:142	47	3	Reminder_Objects_CSm	expectancy_object	0	500	0	0	0	0	2009	1	When you saw the <b>object</b>,   to what <b>degree (0-100%)</b> did you expect the <b>unpleasant sound to occur</b>?	-16	0	0	0	0	0	0
17	2023-04-18	11:46:38	12:03:10	12:03:10:641	48	1	Reminder_NoThink_CSp	fixation	0	5	1000	0	0	1	995	1	+	-15	0	0	0	0	0	0
17	2023-04-18	11:46:38	12:03:15	12:03:15:658	48	2	Reminder_NoThink_CSp	NoThink_CSp	0	5	0	0	0	0	5000	1	+	-16	4	Cue6.jpg	-16	4	Target6.jpg	-16
17	2023-04-18	11:46:38	12:04:02	12:04:02:928	48	3	Reminder_NoThink_CSp	valence	0	5	0	0	30	0	47242	1	I found these images to be...	-16	0	0	0	0	0	0
17	2023-04-18	11:46:38	12:04:04	12:04:04:745	48	4	Reminder_NoThink_CSp	expectancy	0	500	0	0	50	0	1772	1	When you saw the <b>object-scene</b>,   to what <b>degree (0-100%)</b> did you expect the <b>unpleasant sound to occur</b>?	0	0	0	0	0	0	0
17	2023-04-18	11:46:38	12:04:05	12:04:05:744	49	1	Reminder_Baseline_CSp	fixation	0	5	500	0	0	1	495	1	+	-15	0	0	0	0	0	0
17	2023-04-18	11:46:38	12:04:10	12:04:10:762	49	2	Reminder_Baseline_CSp	Baseline_CSp	0	5	0	0	0	0	5000	1	+	-14	4	Cue11.jpg	-14	4	Target11.jpg	-14
17	2023-04-18	11:46:38	12:04:13	12:04:13:095	49	3	Reminder_Baseline_CSp	valence	0	5	0	0	30	0	3283	1	I found these images to be...	-16	0	0	0	0	0	0
17	2023-04-18	11:46:38	12:04:16	12:04:16:979	49	4	Reminder_Baseline_CSp	expectancy	0	1000	0	0	90	0	2844	1	When you saw the <b>object-scene</b>,   to what <b>degree (0-100%)</b> did you expect the <b>unpleasant sound to occur</b>?	-11	0	0	0	0	0	0
17	2023-04-18	11:46:38	12:09:08	12:09:08:502	2	1	Practice_NoThink	fixation	0	5	1500	0	0	1	1495	1	+	-9	0	0	0	0	0	0
17	2023-04-18	11:46:38	12:09:09	12:09:09:519	2	2	Practice_NoThink	NoThink	0	5	0	0	0	0	1000	1	DON'T THINK	-16	0	0	0	0	0	0
17	2023-04-18	11:46:38	12:09:14	12:09:14:536	2	3	Practice_NoThink	NoThinkCue	0	5	0	0	0	1	5000	2	Cue40.jpg	-16	0	0	0	0	0	0
17	2023-04-18	11:46:38	12:09:16	12:09:16:560	2	4	Practice_NoThink	Intrusion	0	1000	3000	0	0	0	2000	1	How <b>often</b> did you <b>think</b> about the <b>scene</b>?   <center><br><b>NEVER (1)    BRIEFLY (2)   OFTEN (3) </b>	-14	0	0	0	0	0	0
17	2023-04-18	11:46:38	12:09:18	12:09:18:540	3	1	Practice_NoThink	fixation	0	5	1000	0	0	1	995	1	+	-16	0	0	0	0	0	0
17	2023-04-18	11:46:38	12:09:19	12:09:19:553	3	2	Practice_NoThink	NoThink	0	5	0	0	0	0	1000	1	DON'T THINK	-16	0	0	0	0	0	0
17	2023-04-18	11:46:38	12:09:24	12:09:24:570	3	3	Practice_NoThink	NoThinkCue	0	5	0	0	0	1	5000	1	Cue39.jpg	-16	0	0	0	0	0	0
17	2023-04-18	11:46:38	12:09:24	12:09:24:154	3	4	Practice_NoThink	Intrusion	0	1500	3000	0	3	1	567	1	How <b>often</b> did you <b>think</b> about the <b>scene</b>?   <center><br><b>NEVER (1)    BRIEFLY (2)   OFTEN (3) </b>	-16	0	0	0	0	0	0
17	2023-04-18	11:46:38	12:09:27	12:09:27:074	4	1	Practice_Think	fixation	0	5	500	0	0	1	495	1	+	-16	0	0	0	0	0	0
17	2023-04-18	11:46:38	12:09:28	12:09:28:086	4	2	Practice_Think	Think	0	5	0	0	0	0	1000	1	THINK	-16	0	0	0	0	0	0
17	2023-04-18	11:46:38	12:09:33	12:09:33:104	4	3	Practice_Think	ThinkCue	0	5	0	0	0	1	5000	1	Cue37.jpg	-16	0	0	0	0	0	0
17	2023-04-18	11:46:38	12:09:34	12:09:34:882	4	4	Practice_Think	Intrusion	0	500	3000	0	4	1	761	1	How <b>often</b> did you <b>think</b> about the <b>scene</b>?   <center><br><b>NEVER (1)    BRIEFLY (2)   OFTEN (3) </b>	-16	0	0	0	0	0	0
17	2023-04-18	11:46:38	12:09:38	12:09:38:608	5	1	Practice_Think	fixation	0	5	1500	0	0	1	1495	1	+	-16	0	0	0	0	0	0
17	2023-04-18	11:46:38	12:09:39	12:09:39:621	5	2	Practice_Think	Think	0	5	0	0	0	0	1000	1	THINK	-16	0	0	0	0	0	0
17	2023-04-18	11:46:38	12:09:44	12:09:44:638	5	3	Practice_Think	ThinkCue	0	5	0	0	0	1	5000	2	Cue38.jpg	-16	0	0	0	0	0	0
17	2023-04-18	11:46:38	12:09:45	12:09:45:082	5	4	Practice_Think	Intrusion	0	500	3000	0	4	1	1428	1	How <b>often</b> did you <b>think</b> about the <b>scene</b>?   <center><br><b>NEVER (1)    BRIEFLY (2)   OFTEN (3) </b>	-16	0	0	0	0	0	0
17	2023-04-18	11:46:38	12:13:33	12:13:33:179	6	1	Practice_Betweenblocks1	Practice_Betweenblocks1	0	5	0	0	57	1	226507	1	<center><br><br><br><br>This is the end of the first practice round. <br><br>There will be 2 more practice rounds.  <br><br> Please await further instruction from the experimenter.	-16	0	0	0	0	0	0
17	2023-04-18	11:46:38	12:13:34	12:13:34:680	7	1	Practice_NoThink	fixation	0	5	500	0	0	1	495	1	+	-7	0	0	0	0	0	0
17	2023-04-18	11:46:38	12:13:35	12:13:35:701	7	2	Practice_NoThink	NoThink	0	5	0	0	0	0	1000	1	DON'T THINK	-8	0	0	0	0	0	0
17	2023-04-18	11:46:38	12:13:40	12:13:40:718	7	3	Practice_NoThink	NoThinkCue	0	5	0	0	0	1	5000	2	Cue40.jpg	-16	0	0	0	0	0	0
17	2023-04-18	11:46:38	12:13:41	12:13:41:618	7	4	Practice_NoThink	Intrusion	0	1000	3000	0	4	1	883	1	How <b>often</b> did you <b>think</b> about the <b>scene</b>?   <center><br><b>NEVER (1)    BRIEFLY (2)   OFTEN (3) </b>	-16	0	0	0	0	0	0
17	2023-04-18	11:46:38	12:13:44	12:13:44:722	8	1	Practice_Think	fixation	0	5	1000	0	0	1	995	1	+	-5	0	0	0	0	0	0
17	2023-04-18	11:46:38	12:13:45	12:13:45:735	8	2	Practice_Think	Think	0	5	0	0	0	0	1000	1	THINK	-16	0	0	0	0	0	0
17	2023-04-18	11:46:38	12:13:50	12:13:50:752	8	3	Practice_Think	ThinkCue	0	5	0	0	0	1	5000	1	Cue37.jpg	-16	0	0	0	0	0	0
17	2023-04-18	11:46:38	12:13:51	12:13:51:570	8	4	Practice_Think	Intrusion	0	1500	3000	0	4	1	801	1	How <b>often</b> did you <b>think</b> about the <b>scene</b>?   <center><br><b>NEVER (1)    BRIEFLY (2)   OFTEN (3) </b>	-16	0	0	0	0	0	0
17	2023-04-18	11:46:38	12:13:54	12:13:54:756	9	1	Practice_NoThink	fixation	0	5	1000	0	0	1	995	1	+	-8	0	0	0	0	0	0
17	2023-04-18	11:46:38	12:13:55	12:13:55:769	9	2	Practice_NoThink	NoThink	0	5	0	0	0	0	1000	1	DON'T THINK	-16	0	0	0	0	0	0
17	2023-04-18	11:46:38	12:14:00	12:14:00:786	9	3	Practice_NoThink	NoThinkCue	0	5	0	0	0	1	5000	1	Cue39.jpg	-16	0	0	0	0	0	0
17	2023-04-18	11:46:38	12:14:01	12:14:01:490	9	4	Practice_NoThink	Intrusion	0	500	3000	0	2	1	687	1	How <b>often</b> did you <b>think</b> about the <b>scene</b>?   <center><br><b>NEVER (1)    BRIEFLY (2)   OFTEN (3) </b>	-16	0	0	0	0	0	0
17	2023-04-18	11:46:38	12:14:04	12:14:04:290	10	1	Practice_Think	fixation	0	5	500	0	0	1	495	1	+	-16	0	0	0	0	0	0
17	2023-04-18	11:46:38	12:14:05	12:14:05:303	10	2	Practice_Think	Think	0	5	0	0	0	0	1000	1	THINK	-16	0	0	0	0	0	0
17	2023-04-18	11:46:38	12:14:10	12:14:10:320	10	3	Practice_Think	ThinkCue	0	5	0	0	0	1	5000	2	Cue38.jpg	-16	0	0	0	0	0	0
17	2023-04-18	11:46:38	12:14:11	12:14:11:586	10	4	Practice_Think	Intrusion	0	1000	3000	0	4	1	1248	1	How <b>often</b> did you <b>think</b> about the <b>scene</b>?   <center><br><b>NEVER (1)    BRIEFLY (2)   OFTEN (3) </b>	-16	0	0	0	0	0	0
17	2023-04-18	11:46:38	12:15:23	12:15:23:554	11	1	Practice_Betweenblocks2	Practice_Betweenblocks2	0	5	0	0	57	1	70184	1	<center><br><br><br><br>This is the end of the second practice round. <br><br>There will be 1 more practice round.  <br><br> Please await further instruction from the experimenter.	4	0	0	0	0	0	0
17	2023-04-18	11:46:38	12:15:24	12:15:24:055	12	1	Practice_Think	fixation	0	5	1500	0	0	1	1495	1	+	-9	0	0	0	0	0	0
17	2023-04-18	11:46:38	12:15:25	12:15:25:075	12	2	Practice_Think	Think	0	5	0	0	0	0	1000	1	THINK	-9	0	0	0	0	0	0
17	2023-04-18	11:46:38	12:15:30	12:15:30:092	12	3	Practice_Think	ThinkCue	0	5	0	0	0	1	5000	1	Cue37.jpg	-16	0	0	0	0	0	0
17	2023-04-18	11:46:38	12:15:32	12:15:32:387	12	4	Practice_Think	Intrusion	0	1500	3000	0	4	1	1278	1	How <b>often</b> did you <b>think</b> about the <b>scene</b>?   <center><br><b>NEVER (1)    BRIEFLY (2)   OFTEN (3) </b>	-16	0	0	0	0	0	0
17	2023-04-18	11:46:38	12:15:34	12:15:34:596	13	1	Practice_Think	fixation	0	5	500	0	0	1	495	1	+	-16	0	0	0	0	0	0
17	2023-04-18	11:46:38	12:15:35	12:15:35:608	13	2	Practice_Think	Think	0	5	0	0	0	0	1000	1	THINK	-16	0	0	0	0	0	0
17	2023-04-18	11:46:38	12:15:40	12:15:40:626	13	3	Practice_Think	ThinkCue	0	5	0	0	0	1	5000	2	Cue38.jpg	-16	0	0	0	0	0	0
17	2023-04-18	11:46:38	12:15:41	12:15:41:410	13	4	Practice_Think	Intrusion	0	1000	3000	0	4	1	768	1	How <b>often</b> did you <b>think</b> about the <b>scene</b>?   <center><br><b>NEVER (1)    BRIEFLY (2)   OFTEN (3) </b>	-16	0	0	0	0	0	0
17	2023-04-18	11:46:38	12:15:44	12:15:44:630	14	1	Practice_NoThink	fixation	0	5	1000	0	0	1	995	1	+	-16	0	0	0	0	0	0
17	2023-04-18	11:46:38	12:15:45	12:15:45:643	14	2	Practice_NoThink	NoThink	0	5	0	0	0	0	1000	1	DON'T THINK	-16	0	0	0	0	0	0
17	2023-04-18	11:46:38	12:15:50	12:15:50:659	14	3	Practice_NoThink	NoThinkCue	0	5	0	0	0	1	5000	2	Cue40.jpg	-16	0	0	0	0	0	0
17	2023-04-18	11:46:38	12:15:50	12:15:50:106	14	4	Practice_NoThink	Intrusion	0	500	3000	0	2	1	429	1	How <b>often</b> did you <b>think</b> about the <b>scene</b>?   <center><br><b>NEVER (1)    BRIEFLY (2)   OFTEN (3) </b>	-16	0	0	0	0	0	0
17	2023-04-18	11:46:38	12:15:54	12:15:54:164	15	1	Practice_NoThink	fixation	0	5	1500	0	0	1	1495	1	+	-16	0	0	0	0	0	0
17	2023-04-18	11:46:38	12:15:55	12:15:55:177	15	2	Practice_NoThink	NoThink	0	5	0	0	0	0	1000	1	DON'T THINK	-16	0	0	0	0	0	0
17	2023-04-18	11:46:38	12:16:00	12:16:00:194	15	3	Practice_NoThink	NoThinkCue	0	5	0	0	0	1	5000	1	Cue39.jpg	-16	0	0	0	0	0	0
17	2023-04-18	11:46:38	12:16:01	12:16:01:586	15	4	Practice_NoThink	Intrusion	0	1500	3000	0	2	1	376	1	How <b>often</b> did you <b>think</b> about the <b>scene</b>?   <center><br><b>NEVER (1)    BRIEFLY (2)   OFTEN (3) </b>	-16	0	0	0	0	0	0
17	2023-04-18	11:46:38	12:16:19	12:16:19:426	1	1	countdown	instructions	0	5	0	0	57	0	4232	1	<center><br><br> <b>WATCH CALLIBRATION</b>.                <br><br><br><br>In a couple of seconds a <b>countdown</b> will start that counts down from 3 to 1,       <br><br>after which the screen will show the instruction <b>PRESS BUTTON</b>.       <br><br><b>As soon as you see that screen</b>, you must shortly press the button on your watch.       <br><br> <br><br> Press SPACE  to continue.	-5	0	0	0	0	0	0
17	2023-04-18	11:46:38	12:16:20	12:16:20:445	1	2	countdown	countdown_3	0	5	0	0	0	0	1000	1	3	-16	0	0	0	0	0	0
17	2023-04-18	11:46:38	12:16:21	12:16:21:461	1	3	countdown	countdown_2	0	5	0	0	0	0	1000	1	2	-16	0	0	0	0	0	0
17	2023-04-18	11:46:38	12:16:22	12:16:22:478	1	4	countdown	countdown_1	0	5	0	0	0	0	1000	1	1	-16	0	0	0	0	0	0
17	2023-04-18	11:46:38	12:16:23	12:16:23:495	1	5	countdown	press_button	0	5	0	0	0	0	1000	1	PRESS BUTTON NOW	-16	0	0	0	0	0	0
17	2023-04-18	11:46:38	12:17:37	12:17:37:01	2	1	TNT_NoThink_CSm	fixation	0	5	1000	0	0	1	995	1	+	-9	0	0	0	0	0	0
17	2023-04-18	11:46:38	12:17:38	12:17:38:019	2	2	TNT_NoThink_CSm	NoThink	0	5	0	0	0	0	1000	1	DON'T THINK	-16	0	0	0	0	0	0
17	2023-04-18	11:46:38	12:17:43	12:17:43:035	2	3	TNT_NoThink_CSm	TNT_NoThink_CSm	0	5	0	0	0	0	5000	2	Cue20.jpg	-16	0	0	0	0	0	0
17	2023-04-18	11:46:38	12:17:44	12:17:44:691	2	4	TNT_NoThink_CSm	Intrusion	0	1000	3000	0	3	1	639	1	How <b>often</b> did you <b>think</b> about the <b>scene</b>?   <center><br><b>NEVER (1)    BRIEFLY (2)   OFTEN (3) </b>	-16	0	0	0	0	0	0
17	2023-04-18	11:46:38	12:17:48	12:17:48:539	3	1	TNT_Think_CSp	fixation	0	5	1500	0	0	1	1495	1	+	-7	0	0	0	0	0	0
17	2023-04-18	11:46:38	12:17:49	12:17:49:552	3	2	TNT_Think_CSp	Think	0	5	0	0	0	0	1000	1	THINK	-16	0	0	0	0	0	0
17	2023-04-18	11:46:38	12:17:54	12:17:54:569	3	3	TNT_Think_CSp	TNT_Think_CSp	0	5	0	0	0	0	5000	4	Cue5.jpg	-16	0	0	0	0	0	0
17	2023-04-18	11:46:38	12:17:54	12:17:54:043	3	4	TNT_Think_CSp	Intrusion	0	1500	3000	0	4	1	457	1	How <b>often</b> did you <b>think</b> about the <b>scene</b>?   <center><br><b>NEVER (1)    BRIEFLY (2)   OFTEN (3) </b>	-16	0	0	0	0	0	0
17	2023-04-18	11:46:38	12:17:57	12:17:57:073	4	1	TNT_NoThink_CSp	fixation	0	5	500	0	0	1	495	1	+	-9	0	0	0	0	0	0
17	2023-04-18	11:46:38	12:17:58	12:17:58:086	4	2	TNT_NoThink_CSp	NoThink	0	5	0	0	0	0	1000	1	DON'T THINK	-16	0	0	0	0	0	0
17	2023-04-18	11:46:38	12:18:03	12:18:03:103	4	3	TNT_NoThink_CSp	TNT_NoThink_CSp	0	5	0	0	0	0	5000	6	Cue22.jpg	-16	0	0	0	0	0	0
17	2023-04-18	11:46:38	12:18:04	12:18:04:643	4	4	TNT_NoThink_CSp	Intrusion	0	500	3000	0	3	1	523	1	How <b>often</b> did you <b>think</b> about the <b>scene</b>?   <center><br><b>NEVER (1)    BRIEFLY (2)   OFTEN (3) </b>	-16	0	0	0	0	0	0
17	2023-04-18	11:46:38	12:18:07	12:18:07:107	5	1	TNT_Think_CSp	fixation	0	5	1000	0	0	1	995	1	+	-8	0	0	0	0	0	0
17	2023-04-18	11:46:38	12:18:08	12:18:08:120	5	2	TNT_Think_CSp	Think	0	5	0	0	0	0	1000	1	THINK	-16	0	0	0	0	0	0
17	2023-04-18	11:46:38	12:18:13	12:18:13:137	5	3	TNT_Think_CSp	TNT_Think_CSp	0	5	0	0	0	0	5000	2	Cue4.jpg	-16	0	0	0	0	0	0
17	2023-04-18	11:46:38	12:18:14	12:18:14:627	5	4	TNT_Think_CSp	Intrusion	0	500	3000	0	4	1	473	1	How <b>often</b> did you <b>think</b> about the <b>scene</b>?   <center><br><b>NEVER (1)    BRIEFLY (2)   OFTEN (3) </b>	-16	0	0	0	0	0	0
17	2023-04-18	11:46:38	12:18:18	12:18:18:641	6	1	TNT_Think_CSm	fixation	0	5	1500	0	0	1	1495	1	+	-5	0	0	0	0	0	0
17	2023-04-18	11:46:38	12:18:19	12:18:19:654	6	2	TNT_Think_CSm	Think	0	5	0	0	0	0	1000	1	THINK	-16	0	0	0	0	0	0
17	2023-04-18	11:46:38	12:18:24	12:18:24:671	6	3	TNT_Think_CSm	TNT_Think_CSm	0	5	0	0	0	0	5000	1	Cue27.jpg	-16	0	0	0	0	0	0
17	2023-04-18	11:46:38	12:18:25	12:18:25:891	6	4	TNT_Think_CSm	Intrusion	0	1500	3000	0	4	1	1203	1	How <b>often</b> did you <b>think</b> about the <b>scene</b>?   <center><br><b>NEVER (1)    BRIEFLY (2)   OFTEN (3) </b>	-16	0	0	0	0	0	0
17	2023-04-18	11:46:38	12:18:27	12:18:27:175	7	1	TNT_NoThink_CSm	fixation	0	5	500	0	0	1	495	1	+	-8	0	0	0	0	0	0
17	2023-04-18	11:46:38	12:18:28	12:18:28:188	7	2	TNT_NoThink_CSm	NoThink	0	5	0	0	0	0	1000	1	DON'T THINK	-16	0	0	0	0	0	0
17	2023-04-18	11:46:38	12:18:33	12:18:33:205	7	3	TNT_NoThink_CSm	TNT_NoThink_CSm	0	5	0	0	0	0	5000	4	Cue34.jpg	-16	0	0	0	0	0	0
17	2023-04-18	11:46:38	12:18:34	12:18:34:595	7	4	TNT_NoThink_CSm	Intrusion	0	1000	3000	0	2	1	373	1	How <b>often</b> did you <b>think</b> about the <b>scene</b>?   <center><br><b>NEVER (1)    BRIEFLY (2)   OFTEN (3) </b>	-16	0	0	0	0	0	0
17	2023-04-18	11:46:38	12:18:37	12:18:37:209	8	1	TNT_Object_CSp	fixation	0	5	1000	0	0	1	995	1	+	-9	0	0	0	0	0	0
17	2023-04-18	11:46:38	12:18:38	12:18:38:222	8	2	TNT_Object_CSp	Passive	0	5	0	0	0	0	1000	1	VIEW	-16	0	0	0	0	0	0
17	2023-04-18	11:46:38	12:18:44	12:18:44:239	8	3	TNT_Object_CSp	TNT_Object_CSp	0	1500	0	0	0	0	5000	3	Object4.jpg	-16	0	0	0	0	0	0
17	2023-04-18	11:46:38	12:18:47	12:18:47:239	9	1	TNT_NoThink_CSp	fixation	0	5	1500	0	0	1	1495	1	+	-8	0	0	0	0	0	0
17	2023-04-18	11:46:38	12:18:48	12:18:48:256	9	2	TNT_NoThink_CSp	NoThink	0	5	0	0	0	0	1000	1	DON'T THINK	-16	0	0	0	0	0	0
17	2023-04-18	11:46:38	12:18:53	12:18:53:273	9	3	TNT_NoThink_CSp	TNT_NoThink_CSp	0	5	0	0	0	0	5000	3	Cue1.jpg	-16	0	0	0	0	0	0
17	2023-04-18	11:46:38	12:18:53	12:18:53:147	9	4	TNT_NoThink_CSp	Intrusion	0	1000	3000	0	2	1	858	1	How <b>often</b> did you <b>think</b> about the <b>scene</b>?   <center><br><b>NEVER (1)    BRIEFLY (2)   OFTEN (3) </b>	-16	0	0	0	0	0	0
17	2023-04-18	11:46:38	12:18:56	12:18:56:776	10	1	TNT_Object_CSp	fixation	0	5	500	0	0	1	495	1	+	-8	0	0	0	0	0	0
17	2023-04-18	11:46:38	12:18:57	12:18:57:790	10	2	TNT_Object_CSp	Passive	0	5	0	0	0	0	1000	1	VIEW	-16	0	0	0	0	0	0
17	2023-04-18	11:46:38	12:19:02	12:19:02:807	10	3	TNT_Object_CSp	TNT_Object_CSp	0	1000	0	0	0	0	5000	4	Object8.jpg	-16	0	0	0	0	0	0
17	2023-04-18	11:46:38	12:19:04	12:19:04:306	11	1	TNT_Object_CSp	fixation	0	5	500	0	0	1	495	1	+	-9	0	0	0	0	0	0
17	2023-04-18	11:46:38	12:19:05	12:19:05:324	11	2	TNT_Object_CSp	Passive	0	5	0	0	0	0	1000	1	VIEW	-16	0	0	0	0	0	0
17	2023-04-18	11:46:38	12:19:10	12:19:10:340	11	3	TNT_Object_CSp	TNT_Object_CSp	0	500	0	0	0	0	5000	1	Object5.jpg	-16	0	0	0	0	0	0
17	2023-04-18	11:46:38	12:19:11	12:19:11:840	12	1	TNT_Think_CSp	fixation	0	5	1000	0	0	1	995	1	+	-9	0	0	0	0	0	0
17	2023-04-18	11:46:38	12:19:12	12:19:12:857	12	2	TNT_Think_CSp	Think	0	5	0	0	0	0	1000	1	THINK	-16	0	0	0	0	0	0
17	2023-04-18	11:46:38	12:19:17	12:19:17:874	12	3	TNT_Think_CSp	TNT_Think_CSp	0	5	0	0	0	0	5000	1	Cue9.jpg	-16	0	0	0	0	0	0
17	2023-04-18	11:46:38	12:19:18	12:19:18:403	12	4	TNT_Think_CSp	Intrusion	0	1500	3000	0	4	1	512	1	How <b>often</b> did you <b>think</b> about the <b>scene</b>?   <center><br><b>NEVER (1)    BRIEFLY (2)   OFTEN (3) </b>	-16	0	0	0	0	0	0
17	2023-04-18	11:46:38	12:19:22	12:19:22:378	13	1	TNT_Object_CSp	fixation	0	5	1500	0	0	1	1495	1	+	-9	0	0	0	0	0	0
17	2023-04-18	11:46:38	12:19:23	12:19:23:391	13	2	TNT_Object_CSp	Passive	0	5	0	0	0	0	1000	1	VIEW	-16	0	0	0	0	0	0
17	2023-04-18	11:46:38	12:19:28	12:19:28:408	13	3	TNT_Object_CSp	TNT_Object_CSp	0	1500	0	0	0	0	5000	2	Object6.jpg	-16	0	0	0	0	0	0
17	2023-04-18	11:46:38	12:19:31	12:19:31:408	14	1	TNT_Think_CSm	fixation	0	5	1500	0	0	1	1495	1	+	-8	0	0	0	0	0	0
17	2023-04-18	11:46:38	12:19:32	12:19:32:425	14	2	TNT_Think_CSm	Think	0	5	0	0	0	0	1000	1	THINK	-16	0	0	0	0	0	0
17	2023-04-18	11:46:38	12:19:37	12:19:37:442	14	3	TNT_Think_CSm	TNT_Think_CSm	0	5	0	0	0	0	5000	5	Cue28.jpg	-16	0	0	0	0	0	0
17	2023-04-18	11:46:38	12:19:38	12:19:38:451	14	4	TNT_Think_CSm	Intrusion	0	500	3000	0	4	1	991	1	How <b>often</b> did you <b>think</b> about the <b>scene</b>?   <center><br><b>NEVER (1)    BRIEFLY (2)   OFTEN (3) </b>	-16	0	0	0	0	0	0
17	2023-04-18	11:46:38	12:19:40	12:19:40:946	15	1	TNT_Object_CSm	fixation	0	5	500	0	0	1	495	1	+	-9	0	0	0	0	0	0
17	2023-04-18	11:46:38	12:19:41	12:19:41:959	15	2	TNT_Object_CSm	Passive	0	5	0	0	0	0	1000	1	VIEW	-16	0	0	0	0	0	0
17	2023-04-18	11:46:38	12:19:46	12:19:46:976	15	3	TNT_Object_CSm	TNT_Object_CSm	0	1500	0	0	0	0	5000	4	Object1.jpg	-16	0	0	0	0	0	0
17	2023-04-18	11:46:38	12:19:49	12:19:49:476	16	1	TNT_Think_CSp	fixation	0	5	1000	0	0	1	995	1	+	-9	0	0	0	0	0	0
17	2023-04-18	11:46:38	12:19:50	12:19:50:493	16	2	TNT_Think_CSp	Think	0	5	0	0	0	0	1000	1	THINK	-16	0	0	0	0	0	0
17	2023-04-18	11:46:38	12:19:55	12:19:55:510	16	3	TNT_Think_CSp	TNT_Think_CSp	0	5	0	0	0	0	5000	5	Cue10.jpg	-16	0	0	0	0	0	0
17	2023-04-18	11:46:38	12:19:56	12:19:56:356	16	4	TNT_Think_CSp	Intrusion	0	1500	3000	0	4	1	828	1	How <b>often</b> did you <b>think</b> about the <b>scene</b>?   <center><br><b>NEVER (1)    BRIEFLY (2)   OFTEN (3) </b>	-16	0	0	0	0	0	0
17	2023-04-18	11:46:38	12:19:59	12:19:59:014	17	1	TNT_NoThink_CSm	fixation	0	5	1500	0	0	1	1495	1	+	-5	0	0	0	0	0	0
17	2023-04-18	11:46:38	12:20:00	12:20:00:027	17	2	TNT_NoThink_CSm	NoThink	0	5	0	0	0	0	1000	1	DON'T THINK	-16	0	0	0	0	0	0
17	2023-04-18	11:46:38	12:20:05	12:20:05:044	17	3	TNT_NoThink_CSm	TNT_NoThink_CSm	0	5	0	0	0	0	5000	1	Cue36.jpg	-16	0	0	0	0	0	0
17	2023-04-18	11:46:38	12:20:06	12:20:06:483	17	4	TNT_NoThink_CSm	Intrusion	0	500	3000	0	2	1	422	1	How <b>often</b> did you <b>think</b> about the <b>scene</b>?   <center><br><b>NEVER (1)    BRIEFLY (2)   OFTEN (3) </b>	-16	0	0	0	0	0	0
17	2023-04-18	11:46:38	12:20:09	12:20:09:047	18	1	TNT_Think_CSm	fixation	0	5	1000	0	0	1	995	1	+	-9	0	0	0	0	0	0
17	2023-04-18	11:46:38	12:20:10	12:20:10:061	18	2	TNT_Think_CSm	Think	0	5	0	0	0	0	1000	1	THINK	-16	0	0	0	0	0	0
17	2023-04-18	11:46:38	12:20:15	12:20:15:078	18	3	TNT_Think_CSm	TNT_Think_CSm	0	5	0	0	0	0	5000	4	Cue30.jpg	-16	0	0	0	0	0	0
17	2023-04-18	11:46:38	12:20:16	12:20:16:755	18	4	TNT_Think_CSm	Intrusion	0	1000	3000	0	4	1	660	1	How <b>often</b> did you <b>think</b> about the <b>scene</b>?   <center><br><b>NEVER (1)    BRIEFLY (2)   OFTEN (3) </b>	-16	0	0	0	0	0	0
17	2023-04-18	11:46:38	12:20:19	12:20:19:581	19	1	TNT_Object_CSm	fixation	0	5	500	0	0	1	495	1	+	-9	0	0	0	0	0	0
17	2023-04-18	11:46:38	12:20:20	12:20:20:595	19	2	TNT_Object_CSm	Passive	0	5	0	0	0	0	1000	1	VIEW	-16	0	0	0	0	0	0
17	2023-04-18	11:46:38	12:20:25	12:20:25:611	19	3	TNT_Object_CSm	TNT_Object_CSm	0	1000	0	0	0	0	5000	1	Object7.jpg	-16	0	0	0	0	0	0
17	2023-04-18	11:46:38	12:20:27	12:20:27:611	20	1	TNT_NoThink_CSp	fixation	0	5	1000	0	0	1	995	1	+	-8	0	0	0	0	0	0
17	2023-04-18	11:46:38	12:20:28	12:20:28:640	20	2	TNT_NoThink_CSp	NoThink	0	5	0	0	0	0	1000	1	DON'T THINK	-16	0	0	0	0	0	0
17	2023-04-18	11:46:38	12:20:33	12:20:33:645	20	3	TNT_NoThink_CSp	TNT_NoThink_CSp	0	5	0	0	0	0	5000	5	Cue14.jpg	-16	0	0	0	0	0	0
17	2023-04-18	11:46:38	12:20:34	12:20:34:499	20	4	TNT_NoThink_CSp	Intrusion	0	1500	3000	0	2	1	837	1	How <b>often</b> did you <b>think</b> about the <b>scene</b>?   <center><br><b>NEVER (1)    BRIEFLY (2)   OFTEN (3) </b>	-16	0	0	0	0	0	0
17	2023-04-18	11:46:38	12:20:36	12:20:36:149	21	1	TNT_Think_CSm	fixation	0	5	500	0	0	1	495	1	+	-8	0	0	0	0	0	0
17	2023-04-18	11:46:38	12:20:37	12:20:37:163	21	2	TNT_Think_CSm	Think	0	5	0	0	0	0	1000	1	THINK	-16	0	0	0	0	0	0
17	2023-04-18	11:46:38	12:20:42	12:20:42:180	21	3	TNT_Think_CSm	TNT_Think_CSm	0	5	0	0	0	0	5000	6	Cue32.jpg	-16	0	0	0	0	0	0
17	2023-04-18	11:46:38	12:20:44	12:20:44:483	21	4	TNT_Think_CSm	Intrusion	0	500	3000	0	4	1	1287	1	How <b>often</b> did you <b>think</b> about the <b>scene</b>?   <center><br><b>NEVER (1)    BRIEFLY (2)   OFTEN (3) </b>	-16	0	0	0	0	0	0
17	2023-04-18	11:46:38	12:20:47	12:20:47:684	22	1	TNT_Think_CSp	fixation	0	5	1500	0	0	1	1495	1	+	-16	0	0	0	0	0	0
17	2023-04-18	11:46:38	12:20:48	12:20:48:696	22	2	TNT_Think_CSp	Think	0	5	0	0	0	0	1000	1	THINK	-16	0	0	0	0	0	0
17	2023-04-18	11:46:38	12:20:53	12:20:53:713	22	3	TNT_Think_CSp	TNT_Think_CSp	0	5	0	0	0	0	5000	6	Cue18.jpg	-16	0	0	0	0	0	0
17	2023-04-18	11:46:38	12:20:54	12:20:54:707	22	4	TNT_Think_CSp	Intrusion	0	1000	3000	0	4	1	977	1	How <b>often</b> did you <b>think</b> about the <b>scene</b>?   <center><br><b>NEVER (1)    BRIEFLY (2)   OFTEN (3) </b>	-16	0	0	0	0	0	0
17	2023-04-18	11:46:38	12:20:57	12:20:57:717	23	1	TNT_Think_CSp	fixation	0	5	1000	0	0	1	995	1	+	-9	0	0	0	0	0	0
17	2023-04-18	11:46:38	12:20:58	12:20:58:730	23	2	TNT_Think_CSp	Think	0	5	0	0	0	0	1000	1	THINK	-16	0	0	0	0	0	0
17	2023-04-18	11:46:38	12:21:03	12:21:03:747	23	3	TNT_Think_CSp	TNT_Think_CSp	0	5	0	0	0	0	5000	3	Cue16.jpg	-16	0	0	0	0	0	0
17	2023-04-18	11:46:38	12:21:04	12:21:04:499	23	4	TNT_Think_CSp	Intrusion	0	1500	3000	0	4	1	735	1	How <b>often</b> did you <b>think</b> about the <b>scene</b>?   <center><br><b>NEVER (1)    BRIEFLY (2)   OFTEN (3) </b>	-16	0	0	0	0	0	0
17	2023-04-18	11:46:38	12:21:08	12:21:08:251	24	1	TNT_Object_CSm	fixation	0	5	1500	0	0	1	1495	1	+	-6	0	0	0	0	0	0
17	2023-04-18	11:46:38	12:21:09	12:21:09:264	24	2	TNT_Object_CSm	Passive	0	5	0	0	0	0	1000	1	VIEW	-16	0	0	0	0	0	0
17	2023-04-18	11:46:38	12:21:14	12:21:14:281	24	3	TNT_Object_CSm	TNT_Object_CSm	0	500	0	0	0	0	5000	3	Object1.jpg	-16	0	0	0	0	0	0
17	2023-04-18	11:46:38	12:21:15	12:21:15:281	25	1	TNT_NoThink_CSm	fixation	0	5	500	0	0	1	495	1	+	-8	0	0	0	0	0	0
17	2023-04-18	11:46:38	12:21:16	12:21:16:298	25	2	TNT_NoThink_CSm	NoThink	0	5	0	0	0	0	1000	1	DON'T THINK	-16	0	0	0	0	0	0
17	2023-04-18	11:46:38	12:21:21	12:21:21:315	25	3	TNT_NoThink_CSm	TNT_NoThink_CSm	0	5	0	0	0	0	5000	3	Cue3.jpg	-16	0	0	0	0	0	0
17	2023-04-18	11:46:38	12:21:22	12:21:22:307	25	4	TNT_NoThink_CSm	Intrusion	0	500	3000	0	3	1	975	1	How <b>often</b> did you <b>think</b> about the <b>scene</b>?   <center><br><b>NEVER (1)    BRIEFLY (2)   OFTEN (3) </b>	-16	0	0	0	0	0	0
17	2023-04-18	11:46:38	12:21:25	12:21:25:819	26	1	TNT_Think_CSm	fixation	0	5	1500	0	0	1	1495	1	+	-9	0	0	0	0	0	0
17	2023-04-18	11:46:38	12:21:26	12:21:26:832	26	2	TNT_Think_CSm	Think	0	5	0	0	0	0	1000	1	THINK	-16	0	0	0	0	0	0
17	2023-04-18	11:46:38	12:21:31	12:21:31:849	26	3	TNT_Think_CSm	TNT_Think_CSm	0	5	0	0	0	0	5000	2	Cue28.jpg	-16	0	0	0	0	0	0
17	2023-04-18	11:46:38	12:21:32	12:21:32:915	26	4	TNT_Think_CSm	Intrusion	0	1000	3000	0	4	1	1050	1	How <b>often</b> did you <b>think</b> about the <b>scene</b>?   <center><br><b>NEVER (1)    BRIEFLY (2)   OFTEN (3) </b>	-16	0	0	0	0	0	0
17	2023-04-18	11:46:38	12:21:35	12:21:35:853	27	1	TNT_NoThink_CSp	fixation	0	5	1000	0	0	1	995	1	+	-8	0	0	0	0	0	0
17	2023-04-18	11:46:38	12:21:36	12:21:36:866	27	2	TNT_NoThink_CSp	NoThink	0	5	0	0	0	0	1000	1	DON'T THINK	-16	0	0	0	0	0	0
17	2023-04-18	11:46:38	12:21:41	12:21:41:883	27	3	TNT_NoThink_CSp	TNT_NoThink_CSp	0	5	0	0	0	0	5000	1	Cue24.jpg	-16	0	0	0	0	0	0
17	2023-04-18	11:46:38	12:21:42	12:21:42:691	27	4	TNT_NoThink_CSp	Intrusion	0	1500	3000	0	2	1	791	1	How <b>often</b> did you <b>think</b> about the <b>scene</b>?   <center><br><b>NEVER (1)    BRIEFLY (2)   OFTEN (3) </b>	-16	0	0	0	0	0	0
17	2023-04-18	11:46:38	12:21:45	12:21:45:387	28	1	TNT_Think_CSm	fixation	0	5	500	0	0	1	495	1	+	-8	0	0	0	0	0	0
17	2023-04-18	11:46:38	12:21:46	12:21:46:400	28	2	TNT_Think_CSm	Think	0	5	0	0	0	0	1000	1	THINK	-16	0	0	0	0	0	0
17	2023-04-18	11:46:38	12:21:51	12:21:51:417	28	3	TNT_Think_CSm	TNT_Think_CSm	0	5	0	0	0	0	5000	3	Cue25.jpg	-16	0	0	0	0	0	0
17	2023-04-18	11:46:38	12:21:52	12:21:52:804	28	4	TNT_Think_CSm	Intrusion	0	500	3000	0	4	1	1370	1	How <b>often</b> did you <b>think</b> about the <b>scene</b>?   <center><br><b>NEVER (1)    BRIEFLY (2)   OFTEN (3) </b>	-16	0	0	0	0	0	0
17	2023-04-18	11:46:38	12:21:55	12:21:55:920	29	1	TNT_Object_CSm	fixation	0	5	1500	0	0	1	1495	1	+	-9	0	0	0	0	0	0
17	2023-04-18	11:46:38	12:21:56	12:21:56:934	29	2	TNT_Object_CSm	Passive	0	5	0	0	0	0	1000	1	VIEW	-16	0	0	0	0	0	0
17	2023-04-18	11:46:38	12:22:01	12:22:01:951	29	3	TNT_Object_CSm	TNT_Object_CSm	0	1000	0	0	0	0	5000	2	Object2.jpg	-16	0	0	0	0	0	0
17	2023-04-18	11:46:38	12:22:03	12:22:03:949	30	1	TNT_NoThink_CSp	fixation	0	5	1000	0	0	1	995	1	+	-9	0	0	0	0	0	0
17	2023-04-18	11:46:38	12:22:04	12:22:04:968	30	2	TNT_NoThink_CSp	NoThink	0	5	0	0	0	0	1000	1	DON'T THINK	-16	0	0	0	0	0	0
17	2023-04-18	11:46:38	12:22:09	12:22:09:985	30	3	TNT_NoThink_CSp	TNT_NoThink_CSp	0	5	0	0	0	0	5000	4	Cue6.jpg	-16	0	0	0	0	0	0
17	2023-04-18	11:46:38	12:22:10	12:22:10:515	30	4	TNT_NoThink_CSp	Intrusion	0	1000	3000	0	3	1	514	1	How <b>often</b> did you <b>think</b> about the <b>scene</b>?   <center><br><b>NEVER (1)    BRIEFLY (2)   OFTEN (3) </b>	-16	0	0	0	0	0	0
17	2023-04-18	11:46:38	12:22:13	12:22:13:489	31	1	TNT_NoThink_CSp	fixation	0	5	500	0	0	1	495	1	+	-16	0	0	0	0	0	0
17	2023-04-18	11:46:38	12:22:14	12:22:14:502	31	2	TNT_NoThink_CSp	NoThink	0	5	0	0	0	0	1000	1	DON'T THINK	-16	0	0	0	0	0	0
17	2023-04-18	11:46:38	12:22:19	12:22:19:519	31	3	TNT_NoThink_CSp	TNT_NoThink_CSp	0	5	0	0	0	0	5000	2	Cue35.jpg	-16	0	0	0	0	0	0
17	2023-04-18	11:46:38	12:22:21	12:22:21:026	31	4	TNT_NoThink_CSp	Intrusion	0	500	3000	0	0	0	2500	1	How <b>often</b> did you <b>think</b> about the <b>scene</b>?   <center><br><b>NEVER (1)    BRIEFLY (2)   OFTEN (3) </b>	-16	0	0	0	0	0	0
17	2023-04-18	11:46:38	12:22:23	12:22:23:023	32	1	TNT_NoThink_CSm	fixation	0	5	1500	0	0	1	1495	1	+	-16	0	0	0	0	0	0
17	2023-04-18	11:46:38	12:22:24	12:22:24:036	32	2	TNT_NoThink_CSm	NoThink	0	5	0	0	0	0	1000	1	DON'T THINK	-16	0	0	0	0	0	0
17	2023-04-18	11:46:38	12:22:29	12:22:29:053	32	3	TNT_NoThink_CSm	TNT_NoThink_CSm	0	5	0	0	0	0	5000	5	Cue12.jpg	-16	0	0	0	0	0	0
17	2023-04-18	11:46:38	12:22:30	12:22:30:643	32	4	TNT_NoThink_CSm	Intrusion	0	1000	3000	0	2	1	573	1	How <b>often</b> did you <b>think</b> about the <b>scene</b>?   <center><br><b>NEVER (1)    BRIEFLY (2)   OFTEN (3) </b>	-16	0	0	0	0	0	0
17	2023-04-18	11:46:38	12:22:33	12:22:33:057	33	1	TNT_NoThink_CSm	fixation	0	5	1000	0	0	1	995	1	+	-16	0	0	0	0	0	0
17	2023-04-18	11:46:38	12:22:34	12:22:34:070	33	2	TNT_NoThink_CSm	NoThink	0	5	0	0	0	0	1000	1	DON'T THINK	-16	0	0	0	0	0	0
17	2023-04-18	11:46:38	12:22:39	12:22:39:086	33	3	TNT_NoThink_CSm	TNT_NoThink_CSm	0	5	0	0	0	0	5000	6	Cue36.jpg	-16	0	0	0	0	0	0
17	2023-04-18	11:46:38	12:22:40	12:22:40:579	33	4	TNT_NoThink_CSm	Intrusion	0	1500	3000	0	2	1	476	1	How <b>often</b> did you <b>think</b> about the <b>scene</b>?   <center><br><b>NEVER (1)    BRIEFLY (2)   OFTEN (3) </b>	-16	0	0	0	0	0	0
17	2023-04-18	11:46:38	12:22:43	12:22:43:589	34	1	TNT_Think_CSp	fixation	0	5	500	0	0	1	495	1	+	-8	0	0	0	0	0	0
17	2023-04-18	11:46:38	12:22:44	12:22:44:604	34	2	TNT_Think_CSp	Think	0	5	0	0	0	0	1000	1	THINK	-16	0	0	0	0	0	0
17	2023-04-18	11:46:38	12:22:49	12:22:49:620	34	3	TNT_Think_CSp	TNT_Think_CSp	0	5	0	0	0	0	5000	6	Cue18.jpg	-16	0	0	0	0	0	0
17	2023-04-18	11:46:38	12:22:49	12:22:49:067	34	4	TNT_Think_CSp	Intrusion	0	1500	3000	0	4	1	430	1	How <b>often</b> did you <b>think</b> about the <b>scene</b>?   <center><br><b>NEVER (1)    BRIEFLY (2)   OFTEN (3) </b>	-16	0	0	0	0	0	0
17	2023-04-18	11:46:38	12:22:53	12:22:53:624	35	1	TNT_Object_CSm	fixation	0	5	1000	0	0	1	995	1	+	-16	0	0	0	0	0	0
17	2023-04-18	11:46:38	12:22:54	12:22:54:637	35	2	TNT_Object_CSm	Passive	0	5	0	0	0	0	1000	1	VIEW	-16	0	0	0	0	0	0
17	2023-04-18	11:46:38	12:22:59	12:22:59:654	35	3	TNT_Object_CSm	TNT_Object_CSm	0	500	0	0	0	0	5000	4	Object1.jpg	-16	0	0	0	0	0	0
17	2023-04-18	11:46:38	12:23:00	12:23:00:654	36	1	TNT_NoThink_CSp	fixation	0	5	500	0	0	1	495	1	+	-8	0	0	0	0	0	0
17	2023-04-18	11:46:38	12:23:01	12:23:01:672	36	2	TNT_NoThink_CSp	NoThink	0	5	0	0	0	0	1000	1	DON'T THINK	-16	0	0	0	0	0	0
17	2023-04-18	11:46:38	12:23:06	12:23:06:688	36	3	TNT_NoThink_CSp	TNT_NoThink_CSp	0	5	0	0	0	0	5000	1	Cue24.jpg	-16	0	0	0	0	0	0
17	2023-04-18	11:46:38	12:23:07	12:23:07:363	36	4	TNT_NoThink_CSp	Intrusion	0	1000	3000	0	2	1	658	1	How <b>often</b> did you <b>think</b> about the <b>scene</b>?   <center><br><b>NEVER (1)    BRIEFLY (2)   OFTEN (3) </b>	-16	0	0	0	0	0	0
17	2023-04-18	11:46:38	12:23:10	12:23:10:191	37	1	TNT_Object_CSm	fixation	0	5	1500	0	0	1	1495	1	+	-16	0	0	0	0	0	0
17	2023-04-18	11:46:38	12:23:11	12:23:11:205	37	2	TNT_Object_CSm	Passive	0	5	0	0	0	0	1000	1	VIEW	-16	0	0	0	0	0	0
17	2023-04-18	11:46:38	12:23:17	12:23:17:222	37	3	TNT_Object_CSm	TNT_Object_CSm	0	1500	0	0	0	0	5000	1	Object7.jpg	-16	0	0	0	0	0	0
17	2023-04-18	11:46:38	12:23:20	12:23:20:220	38	1	TNT_Think_CSp	fixation	0	5	1500	0	0	1	1495	1	+	-9	0	0	0	0	0	0
17	2023-04-18	11:46:38	12:23:21	12:23:21:239	38	2	TNT_Think_CSp	Think	0	5	0	0	0	0	1000	1	THINK	-16	0	0	0	0	0	0
17	2023-04-18	11:46:38	12:23:26	12:23:26:256	38	3	TNT_Think_CSp	TNT_Think_CSp	0	5	0	0	0	0	5000	2	Cue4.jpg	-16	0	0	0	0	0	0
17	2023-04-18	11:46:38	12:23:26	12:23:26:947	38	4	TNT_Think_CSp	Intrusion	0	500	3000	0	4	1	674	1	How <b>often</b> did you <b>think</b> about the <b>scene</b>?   <center><br><b>NEVER (1)    BRIEFLY (2)   OFTEN (3) </b>	-16	0	0	0	0	0	0
17	2023-04-18	11:46:38	12:23:29	12:23:29:760	39	1	TNT_Think_CSm	fixation	0	5	500	0	0	1	495	1	+	-9	0	0	0	0	0	0
17	2023-04-18	11:46:38	12:23:30	12:23:30:773	39	2	TNT_Think_CSm	Think	0	5	0	0	0	0	1000	1	THINK	-16	0	0	0	0	0	0
17	2023-04-18	11:46:38	12:23:35	12:23:35:790	39	3	TNT_Think_CSm	TNT_Think_CSm	0	5	0	0	0	0	5000	2	Cue28.jpg	-16	0	0	0	0	0	0
17	2023-04-18	11:46:38	12:23:36	12:23:36:323	39	4	TNT_Think_CSm	Intrusion	0	500	3000	0	4	1	516	1	How <b>often</b> did you <b>think</b> about the <b>scene</b>?   <center><br><b>NEVER (1)    BRIEFLY (2)   OFTEN (3) </b>	-16	0	0	0	0	0	0
17	2023-04-18	11:46:38	12:23:39	12:23:39:794	40	1	TNT_Think_CSm	fixation	0	5	1000	0	0	1	995	1	+	-16	0	0	0	0	0	0
17	2023-04-18	11:46:38	12:23:40	12:23:40:807	40	2	TNT_Think_CSm	Think	0	5	0	0	0	0	1000	1	THINK	-16	0	0	0	0	0	0
17	2023-04-18	11:46:38	12:23:45	12:23:45:824	40	3	TNT_Think_CSm	TNT_Think_CSm	0	5	0	0	0	0	5000	3	Cue25.jpg	-16	0	0	0	0	0	0
17	2023-04-18	11:46:38	12:23:46	12:23:46:691	40	4	TNT_Think_CSm	Intrusion	0	1000	3000	0	4	1	850	1	How <b>often</b> did you <b>think</b> about the <b>scene</b>?   <center><br><b>NEVER (1)    BRIEFLY (2)   OFTEN (3) </b>	-16	0	0	0	0	0	0
17	2023-04-18	11:46:38	12:23:49	12:23:49:328	41	1	TNT_Object_CSp	fixation	0	5	500	0	0	1	495	1	+	-9	0	0	0	0	0	0
17	2023-04-18	11:46:38	12:23:50	12:23:50:341	41	2	TNT_Object_CSp	Passive	0	5	0	0	0	0	1000	1	VIEW	-16	0	0	0	0	0	0
17	2023-04-18	11:46:38	12:23:55	12:23:55:358	41	3	TNT_Object_CSp	TNT_Object_CSp	0	1000	0	0	0	0	5000	3	Object4.jpg	-16	0	0	0	0	0	0
17	2023-04-18	11:46:38	12:23:57	12:23:57:357	42	1	TNT_NoThink_CSm	fixation	0	5	1000	0	0	1	995	1	+	-9	0	0	0	0	0	0
17	2023-04-18	11:46:38	12:23:58	12:23:58:375	42	2	TNT_NoThink_CSm	NoThink	0	5	0	0	0	0	1000	1	DON'T THINK	-16	0	0	0	0	0	0
17	2023-04-18	11:46:38	12:24:03	12:24:03:391	42	3	TNT_NoThink_CSm	TNT_NoThink_CSm	0	5	0	0	0	0	5000	2	Cue20.jpg	-16	0	0	0	0	0	0
17	2023-04-18	11:46:38	12:24:03	12:24:03:924	42	4	TNT_NoThink_CSm	Intrusion	0	1500	3000	0	2	1	515	1	How <b>often</b> did you <b>think</b> about the <b>scene</b>?   <center><br><b>NEVER (1)    BRIEFLY (2)   OFTEN (3) </b>	-16	0	0	0	0	0	0
17	2023-04-18	11:46:38	12:24:07	12:24:07:895	43	1	TNT_Object_CSm	fixation	0	5	1500	0	0	1	1495	1	+	-16	0	0	0	0	0	0
17	2023-04-18	11:46:38	12:24:08	12:24:08:909	43	2	TNT_Object_CSm	Passive	0	5	0	0	0	0	1000	1	VIEW	-16	0	0	0	0	0	0
17	2023-04-18	11:46:38	12:24:13	12:24:13:925	43	3	TNT_Object_CSm	TNT_Object_CSm	0	1000	0	0	0	0	5000	2	Object2.jpg	-16	0	0	0	0	0	0
17	2023-04-18	11:46:38	12:24:16	12:24:16:425	44	1	TNT_Think_CSp	fixation	0	5	1500	0	0	1	1495	1	+	-8	0	0	0	0	0	0
17	2023-04-18	11:46:38	12:24:17	12:24:17:442	44	2	TNT_Think_CSp	Think	0	5	0	0	0	0	1000	1	THINK	-16	0	0	0	0	0	0
17	2023-04-18	11:46:38	12:24:22	12:24:22:459	44	3	TNT_Think_CSp	TNT_Think_CSp	0	5	0	0	0	0	5000	5	Cue10.jpg	-16	0	0	0	0	0	0
17	2023-04-18	11:46:38	12:24:23	12:24:23:619	44	4	TNT_Think_CSp	Intrusion	0	1500	3000	0	4	1	1143	1	How <b>often</b> did you <b>think</b> about the <b>scene</b>?   <center><br><b>NEVER (1)    BRIEFLY (2)   OFTEN (3) </b>	-16	0	0	0	0	0	0
17	2023-04-18	11:46:38	12:24:26	12:24:26:463	45	1	TNT_Object_CSp	fixation	0	5	1000	0	0	1	995	1	+	-8	0	0	0	0	0	0
17	2023-04-18	11:46:38	12:24:27	12:24:27:476	45	2	TNT_Object_CSp	Passive	0	5	0	0	0	0	1000	1	VIEW	-16	0	0	0	0	0	0
17	2023-04-18	11:46:38	12:24:32	12:24:32:493	45	3	TNT_Object_CSp	TNT_Object_CSp	0	500	0	0	0	0	5000	4	Object8.jpg	-16	0	0	0	0	0	0
17	2023-04-18	11:46:38	12:24:33	12:24:33:492	46	1	TNT_NoThink_CSp	fixation	0	5	500	0	0	1	495	1	+	-8	0	0	0	0	0	0
17	2023-04-18	11:46:38	12:24:34	12:24:34:510	46	2	TNT_NoThink_CSp	NoThink	0	5	0	0	0	0	1000	1	DON'T THINK	-16	0	0	0	0	0	0
17	2023-04-18	11:46:38	12:24:39	12:24:39:527	46	3	TNT_NoThink_CSp	TNT_NoThink_CSp	0	5	0	0	0	0	5000	6	Cue22.jpg	-16	0	0	0	0	0	0
17	2023-04-18	11:46:38	12:24:39	12:24:39:163	46	4	TNT_NoThink_CSp	Intrusion	0	1000	3000	0	2	1	620	1	How <b>often</b> did you <b>think</b> about the <b>scene</b>?   <center><br><b>NEVER (1)    BRIEFLY (2)   OFTEN (3) </b>	-16	0	0	0	0	0	0
17	2023-04-18	11:46:38	12:24:43	12:24:43:531	47	1	TNT_Think_CSm	fixation	0	5	1000	0	0	1	995	1	+	-16	0	0	0	0	0	0
17	2023-04-18	11:46:38	12:24:44	12:24:44:544	47	2	TNT_Think_CSm	Think	0	5	0	0	0	0	1000	1	THINK	-16	0	0	0	0	0	0
17	2023-04-18	11:46:38	12:24:49	12:24:49:561	47	3	TNT_Think_CSm	TNT_Think_CSm	0	5	0	0	0	0	5000	5	Cue28.jpg	-16	0	0	0	0	0	0
17	2023-04-18	11:46:38	12:24:50	12:24:50:915	47	4	TNT_Think_CSm	Intrusion	0	500	3000	0	4	1	1337	1	How <b>often</b> did you <b>think</b> about the <b>scene</b>?   <center><br><b>NEVER (1)    BRIEFLY (2)   OFTEN (3) </b>	-16	0	0	0	0	0	0
17	2023-04-18	11:46:38	12:24:53	12:24:53:064	48	1	TNT_NoThink_CSp	fixation	0	5	1500	0	0	1	1495	1	+	-9	0	0	0	0	0	0
17	2023-04-18	11:46:38	12:24:54	12:24:54:078	48	2	TNT_NoThink_CSp	NoThink	0	5	0	0	0	0	1000	1	DON'T THINK	-16	0	0	0	0	0	0
17	2023-04-18	11:46:38	12:24:59	12:24:59:095	48	3	TNT_NoThink_CSp	TNT_NoThink_CSp	0	5	0	0	0	0	5000	3	Cue1.jpg	-16	0	0	0	0	0	0
17	2023-04-18	11:46:38	12:25:00	12:25:00:915	48	4	TNT_NoThink_CSp	Intrusion	0	500	3000	0	2	1	804	1	How <b>often</b> did you <b>think</b> about the <b>scene</b>?   <center><br><b>NEVER (1)    BRIEFLY (2)   OFTEN (3) </b>	-16	0	0	0	0	0	0
17	2023-04-18	11:46:38	12:25:03	12:25:03:599	49	1	TNT_Think_CSp	fixation	0	5	500	0	0	1	495	1	+	-16	0	0	0	0	0	0
17	2023-04-18	11:46:38	12:25:04	12:25:04:612	49	2	TNT_Think_CSp	Think	0	5	0	0	0	0	1000	1	THINK	-16	0	0	0	0	0	0
17	2023-04-18	11:46:38	12:25:09	12:25:09:628	49	3	TNT_Think_CSp	TNT_Think_CSp	0	5	0	0	0	0	5000	3	Cue16.jpg	-16	0	0	0	0	0	0
17	2023-04-18	11:46:38	12:25:10	12:25:10:355	49	4	TNT_Think_CSp	Intrusion	0	1500	3000	0	4	1	710	1	How <b>often</b> did you <b>think</b> about the <b>scene</b>?   <center><br><b>NEVER (1)    BRIEFLY (2)   OFTEN (3) </b>	-16	0	0	0	0	0	0
17	2023-04-18	11:46:38	12:25:13	12:25:13:133	50	1	TNT_Think_CSp	fixation	0	5	1500	0	0	1	1495	1	+	-9	0	0	0	0	0	0
17	2023-04-18	11:46:38	12:25:14	12:25:14:146	50	2	TNT_Think_CSp	Think	0	5	0	0	0	0	1000	1	THINK	-16	0	0	0	0	0	0
17	2023-04-18	11:46:38	12:25:19	12:25:19:163	50	3	TNT_Think_CSp	TNT_Think_CSp	0	5	0	0	0	0	5000	1	Cue9.jpg	-16	0	0	0	0	0	0
17	2023-04-18	11:46:38	12:25:20	12:25:20:835	50	4	TNT_Think_CSp	Intrusion	0	1000	3000	0	4	1	656	1	How <b>often</b> did you <b>think</b> about the <b>scene</b>?   <center><br><b>NEVER (1)    BRIEFLY (2)   OFTEN (3) </b>	-16	0	0	0	0	0	0
17	2023-04-18	11:46:38	12:25:23	12:25:23:667	51	1	TNT_Think_CSm	fixation	0	5	500	0	0	1	495	1	+	-8	0	0	0	0	0	0
17	2023-04-18	11:46:38	12:25:24	12:25:24:680	51	2	TNT_Think_CSm	Think	0	5	0	0	0	0	1000	1	THINK	-16	0	0	0	0	0	0
17	2023-04-18	11:46:38	12:25:29	12:25:29:696	51	3	TNT_Think_CSm	TNT_Think_CSm	0	5	0	0	0	0	5000	4	Cue30.jpg	-16	0	0	0	0	0	0
17	2023-04-18	11:46:38	12:25:30	12:25:30:187	51	4	TNT_Think_CSm	Intrusion	0	500	3000	0	4	1	1474	1	How <b>often</b> did you <b>think</b> about the <b>scene</b>?   <center><br><b>NEVER (1)    BRIEFLY (2)   OFTEN (3) </b>	-16	0	0	0	0	0	0
17	2023-04-18	11:46:38	12:25:33	12:25:33:700	52	1	TNT_NoThink_CSp	fixation	0	5	1000	0	0	1	995	1	+	-9	0	0	0	0	0	0
17	2023-04-18	11:46:38	12:25:34	12:25:34:714	52	2	TNT_NoThink_CSp	NoThink	0	5	0	0	0	0	1000	1	DON'T THINK	-16	0	0	0	0	0	0
17	2023-04-18	11:46:38	12:25:39	12:25:39:730	52	3	TNT_NoThink_CSp	TNT_NoThink_CSp	0	5	0	0	0	0	5000	2	Cue35.jpg	-16	0	0	0	0	0	0
17	2023-04-18	11:46:38	12:25:39	12:25:39:196	52	4	TNT_NoThink_CSp	Intrusion	0	1000	3000	0	2	1	448	1	How <b>often</b> did you <b>think</b> about the <b>scene</b>?   <center><br><b>NEVER (1)    BRIEFLY (2)   OFTEN (3) </b>	-16	0	0	0	0	0	0
17	2023-04-18	11:46:38	12:25:43	12:25:43:734	53	1	TNT_Object_CSp	fixation	0	5	1000	0	0	1	995	1	+	-16	0	0	0	0	0	0
17	2023-04-18	11:46:38	12:25:44	12:25:44:747	53	2	TNT_Object_CSp	Passive	0	5	0	0	0	0	1000	1	VIEW	-16	0	0	0	0	0	0
17	2023-04-18	11:46:38	12:25:49	12:25:49:764	53	3	TNT_Object_CSp	TNT_Object_CSp	0	1000	0	0	0	0	5000	1	Object5.jpg	-16	0	0	0	0	0	0
17	2023-04-18	11:46:38	12:25:52	12:25:52:264	54	1	TNT_NoThink_CSp	fixation	0	5	1500	0	0	1	1495	1	+	-9	0	0	0	0	0	0
17	2023-04-18	11:46:38	12:25:53	12:25:53:282	54	2	TNT_NoThink_CSp	NoThink	0	5	0	0	0	0	1000	1	DON'T THINK	-16	0	0	0	0	0	0
17	2023-04-18	11:46:38	12:25:58	12:25:58:298	54	3	TNT_NoThink_CSp	TNT_NoThink_CSp	0	5	0	0	0	0	5000	5	Cue14.jpg	-16	0	0	0	0	0	0
17	2023-04-18	11:46:38	12:25:58	12:25:58:819	54	4	TNT_NoThink_CSp	Intrusion	0	1500	3000	0	2	1	504	1	How <b>often</b> did you <b>think</b> about the <b>scene</b>?   <center><br><b>NEVER (1)    BRIEFLY (2)   OFTEN (3) </b>	-16	0	0	0	0	0	0
17	2023-04-18	11:46:38	12:26:01	12:26:01:802	55	1	TNT_NoThink_CSp	fixation	0	5	500	0	0	1	495	1	+	-16	0	0	0	0	0	0
17	2023-04-18	11:46:38	12:26:02	12:26:02:815	55	2	TNT_NoThink_CSp	NoThink	0	5	0	0	0	0	1000	1	DON'T THINK	-16	0	0	0	0	0	0
17	2023-04-18	11:46:38	12:26:07	12:26:07:832	55	3	TNT_NoThink_CSp	TNT_NoThink_CSp	0	5	0	0	0	0	5000	4	Cue6.jpg	-16	0	0	0	0	0	0
17	2023-04-18	11:46:38	12:26:08	12:26:08:451	55	4	TNT_NoThink_CSp	Intrusion	0	1000	3000	0	3	1	602	1	How <b>often</b> did you <b>think</b> about the <b>scene</b>?   <center><br><b>NEVER (1)    BRIEFLY (2)   OFTEN (3) </b>	-16	0	0	0	0	0	0
17	2023-04-18	11:46:38	12:26:11	12:26:11:336	56	1	TNT_Think_CSm	fixation	0	5	500	0	0	1	495	1	+	-16	0	0	0	0	0	0
17	2023-04-18	11:46:38	12:26:12	12:26:12:349	56	2	TNT_Think_CSm	Think	0	5	0	0	0	0	1000	1	THINK	-16	0	0	0	0	0	0
17	2023-04-18	11:46:38	12:26:17	12:26:17:366	56	3	TNT_Think_CSm	TNT_Think_CSm	0	5	0	0	0	0	5000	1	Cue27.jpg	-16	0	0	0	0	0	0
17	2023-04-18	11:46:38	12:26:18	12:26:18:259	56	4	TNT_Think_CSm	Intrusion	0	1500	3000	0	4	1	875	1	How <b>often</b> did you <b>think</b> about the <b>scene</b>?   <center><br><b>NEVER (1)    BRIEFLY (2)   OFTEN (3) </b>	-16	0	0	0	0	0	0
17	2023-04-18	11:46:38	12:26:21	12:26:21:870	57	1	TNT_NoThink_CSm	fixation	0	5	1500	0	0	1	1495	1	+	-16	0	0	0	0	0	0
17	2023-04-18	11:46:38	12:26:22	12:26:22:884	57	2	TNT_NoThink_CSm	NoThink	0	5	0	0	0	0	1000	1	DON'T THINK	-16	0	0	0	0	0	0
17	2023-04-18	11:46:38	12:26:27	12:26:27:900	57	3	TNT_NoThink_CSm	TNT_NoThink_CSm	0	5	0	0	0	0	5000	1	Cue36.jpg	-16	0	0	0	0	0	0
17	2023-04-18	11:46:38	12:26:28	12:26:28:643	57	4	TNT_NoThink_CSm	Intrusion	0	500	3000	0	2	1	726	1	How <b>often</b> did you <b>think</b> about the <b>scene</b>?   <center><br><b>NEVER (1)    BRIEFLY (2)   OFTEN (3) </b>	-16	0	0	0	0	0	0
17	2023-04-18	11:46:38	12:26:31	12:26:31:904	58	1	TNT_Think_CSp	fixation	0	5	1000	0	0	1	995	1	+	-16	0	0	0	0	0	0
17	2023-04-18	11:46:38	12:26:32	12:26:32:917	58	2	TNT_Think_CSp	Think	0	5	0	0	0	0	1000	1	THINK	-16	0	0	0	0	0	0
17	2023-04-18	11:46:38	12:26:37	12:26:37:934	58	3	TNT_Think_CSp	TNT_Think_CSp	0	5	0	0	0	0	5000	4	Cue5.jpg	-16	0	0	0	0	0	0
17	2023-04-18	11:46:38	12:26:38	12:26:38:868	58	4	TNT_Think_CSp	Intrusion	0	1500	3000	0	4	1	916	1	How <b>often</b> did you <b>think</b> about the <b>scene</b>?   <center><br><b>NEVER (1)    BRIEFLY (2)   OFTEN (3) </b>	-16	0	0	0	0	0	0
17	2023-04-18	11:46:38	12:26:41	12:26:41:938	59	1	TNT_Think_CSm	fixation	0	5	1000	0	0	1	995	1	+	-16	0	0	0	0	0	0
17	2023-04-18	11:46:38	12:26:42	12:26:42:951	59	2	TNT_Think_CSm	Think	0	5	0	0	0	0	1000	1	THINK	-16	0	0	0	0	0	0
17	2023-04-18	11:46:38	12:26:47	12:26:47:968	59	3	TNT_Think_CSm	TNT_Think_CSm	0	5	0	0	0	0	5000	6	Cue32.jpg	-16	0	0	0	0	0	0
17	2023-04-18	11:46:38	12:26:48	12:26:48:947	59	4	TNT_Think_CSm	Intrusion	0	1000	3000	0	4	1	962	1	How <b>often</b> did you <b>think</b> about the <b>scene</b>?   <center><br><b>NEVER (1)    BRIEFLY (2)   OFTEN (3) </b>	-16	0	0	0	0	0	0
17	2023-04-18	11:46:38	12:26:52	12:26:52:471	60	1	TNT_Object_CSm	fixation	0	5	1500	0	0	1	1495	1	+	-16	0	0	0	0	0	0
17	2023-04-18	11:46:38	12:26:53	12:26:53:485	60	2	TNT_Object_CSm	Passive	0	5	0	0	0	0	1000	1	VIEW	-16	0	0	0	0	0	0
17	2023-04-18	11:46:38	12:26:58	12:26:58:502	60	3	TNT_Object_CSm	TNT_Object_CSm	0	500	0	0	0	0	5000	3	Object1.jpg	-16	0	0	0	0	0	0
17	2023-04-18	11:46:38	12:26:59	12:26:59:501	61	1	TNT_NoThink_CSm	fixation	0	5	500	0	0	1	495	1	+	-6	0	0	0	0	0	0
17	2023-04-18	11:46:38	12:27:00	12:27:00:519	61	2	TNT_NoThink_CSm	NoThink	0	5	0	0	0	0	1000	1	DON'T THINK	-16	0	0	0	0	0	0
17	2023-04-18	11:46:38	12:27:05	12:27:05:536	61	3	TNT_NoThink_CSm	TNT_NoThink_CSm	0	5	0	0	0	0	5000	5	Cue12.jpg	-16	0	0	0	0	0	0
17	2023-04-18	11:46:38	12:27:05	12:27:05:03	61	4	TNT_NoThink_CSm	Intrusion	0	500	3000	0	2	1	451	1	How <b>often</b> did you <b>think</b> about the <b>scene</b>?   <center><br><b>NEVER (1)    BRIEFLY (2)   OFTEN (3) </b>	-16	0	0	0	0	0	0
17	2023-04-18	11:46:38	12:27:09	12:27:09:040	62	1	TNT_Object_CSp	fixation	0	5	1500	0	0	1	1495	1	+	-16	0	0	0	0	0	0
17	2023-04-18	11:46:38	12:27:10	12:27:10:053	62	2	TNT_Object_CSp	Passive	0	5	0	0	0	0	1000	1	VIEW	-16	0	0	0	0	0	0
17	2023-04-18	11:46:38	12:27:15	12:27:15:070	62	3	TNT_Object_CSp	TNT_Object_CSp	0	500	0	0	0	0	5000	2	Object6.jpg	-16	0	0	0	0	0	0
17	2023-04-18	11:46:38	12:27:16	12:27:16:069	63	1	TNT_NoThink_CSm	fixation	0	5	500	0	0	1	495	1	+	-8	0	0	0	0	0	0
17	2023-04-18	11:46:38	12:27:17	12:27:17:087	63	2	TNT_NoThink_CSm	NoThink	0	5	0	0	0	0	1000	1	DON'T THINK	-16	0	0	0	0	0	0
17	2023-04-18	11:46:38	12:27:22	12:27:22:103	63	3	TNT_NoThink_CSm	TNT_NoThink_CSm	0	5	0	0	0	0	5000	6	Cue36.jpg	-16	0	0	0	0	0	0
17	2023-04-18	11:46:38	12:27:23	12:27:23:779	63	4	TNT_NoThink_CSm	Intrusion	0	1500	3000	0	2	1	659	1	How <b>often</b> did you <b>think</b> about the <b>scene</b>?   <center><br><b>NEVER (1)    BRIEFLY (2)   OFTEN (3) </b>	-16	0	0	0	0	0	0
17	2023-04-18	11:46:38	12:27:26	12:27:26:108	64	1	TNT_NoThink_CSm	fixation	0	5	1000	0	0	1	995	1	+	-16	0	0	0	0	0	0
17	2023-04-18	11:46:38	12:27:27	12:27:27:121	64	2	TNT_NoThink_CSm	NoThink	0	5	0	0	0	0	1000	1	DON'T THINK	-16	0	0	0	0	0	0
17	2023-04-18	11:46:38	12:27:32	12:27:32:137	64	3	TNT_NoThink_CSm	TNT_NoThink_CSm	0	5	0	0	0	0	5000	3	Cue3.jpg	-16	0	0	0	0	0	0
17	2023-04-18	11:46:38	12:27:33	12:27:33:067	64	4	TNT_NoThink_CSm	Intrusion	0	500	3000	0	2	1	913	1	How <b>often</b> did you <b>think</b> about the <b>scene</b>?   <center><br><b>NEVER (1)    BRIEFLY (2)   OFTEN (3) </b>	-16	0	0	0	0	0	0
17	2023-04-18	11:46:38	12:27:36	12:27:36:141	65	1	TNT_NoThink_CSm	fixation	0	5	1000	0	0	1	995	1	+	-8	0	0	0	0	0	0
17	2023-04-18	11:46:38	12:27:37	12:27:37:154	65	2	TNT_NoThink_CSm	NoThink	0	5	0	0	0	0	1000	1	DON'T THINK	-16	0	0	0	0	0	0
17	2023-04-18	11:46:38	12:27:42	12:27:42:171	65	3	TNT_NoThink_CSm	TNT_NoThink_CSm	0	5	0	0	0	0	5000	4	Cue34.jpg	-16	0	0	0	0	0	0
17	2023-04-18	11:46:38	12:27:43	12:27:43:04	65	4	TNT_NoThink_CSm	Intrusion	0	1000	3000	0	2	1	815	1	How <b>often</b> did you <b>think</b> about the <b>scene</b>?   <center><br><b>NEVER (1)    BRIEFLY (2)   OFTEN (3) </b>	-16	0	0	0	0	0	0
17	2023-04-18	11:46:38	12:27:47	12:27:47:675	66	1	Expectancy_rating	fixation	0	5	1500	0	0	1	1495	1	+	-9	0	0	0	0	0	0
17	2023-04-18	11:46:38	12:27:57	12:27:57:370	66	2	Expectancy_rating	expectancy_rating	0	1000	0	0	10	0	9675	1	When you saw the <b>object</b>,   to what <b>degree (0-100%)</b> did you expect the <b>unpleasant sound to occur</b>?	-16	30	Cue30.jpg	-16	0	0	0
17	2023-04-18	11:46:38	12:27:58	12:27:58:871	67	1	Expectancy_rating	fixation	0	5	500	0	0	1	495	1	+	-9	0	0	0	0	0	0
17	2023-04-18	11:46:38	12:28:02	12:28:02:837	67	2	Expectancy_rating	expectancy_rating	0	500	0	0	90	0	3938	1	When you saw the <b>object</b>,   to what <b>degree (0-100%)</b> did you expect the <b>unpleasant sound to occur</b>?	-16	9	Cue9.jpg	-16	0	0	0
17	2023-04-18	11:46:38	12:28:03	12:28:03:836	68	1	Expectancy_rating	fixation	0	5	500	0	0	1	495	1	+	-15	0	0	0	0	0	0
17	2023-04-18	11:46:38	12:28:05	12:28:05:988	68	2	Expectancy_rating	expectancy_rating	0	1500	0	0	100	0	2131	1	When you saw the <b>object</b>,   to what <b>degree (0-100%)</b> did you expect the <b>unpleasant sound to occur</b>?	-10	21	Cue21.jpg	-10	0	0	0
17	2023-04-18	11:46:38	12:28:08	12:28:08:986	69	1	Expectancy_rating	fixation	0	5	1500	0	0	1	1495	1	+	-15	0	0	0	0	0	0
17	2023-04-18	11:46:38	12:28:11	12:28:11:354	69	2	Expectancy_rating	expectancy_rating	0	1500	0	0	0	0	2317	1	When you saw the <b>object</b>,   to what <b>degree (0-100%)</b> did you expect the <b>unpleasant sound to occur</b>?	-10	41	Object1.jpg	-10	0	0	0
17	2023-04-18	11:46:38	12:28:13	12:28:13:837	70	1	Expectancy_rating	fixation	0	5	1000	0	0	1	995	1	+	-14	0	0	0	0	0	0
17	2023-04-18	11:46:38	12:28:15	12:28:15:189	70	2	Expectancy_rating	expectancy_rating	0	500	0	0	0	0	2323	1	When you saw the <b>object</b>,   to what <b>degree (0-100%)</b> did you expect the <b>unpleasant sound to occur</b>?	-10	43	Object3.jpg	-10	0	0	0
17	2023-04-18	11:46:38	12:28:17	12:28:17:689	71	1	Expectancy_rating	fixation	0	5	1000	0	0	1	995	1	+	-15	0	0	0	0	0	0
17	2023-04-18	11:46:38	12:28:20	12:28:20:106	71	2	Expectancy_rating	expectancy_rating	0	1000	0	0	70	0	3384	1	When you saw the <b>object</b>,   to what <b>degree (0-100%)</b> did you expect the <b>unpleasant sound to occur</b>?	-16	15	Cue15.jpg	-16	0	0	0
17	2023-04-18	11:46:38	12:28:22	12:28:22:604	72	1	Expectancy_rating	fixation	0	5	500	0	0	1	495	1	+	-15	0	0	0	0	0	0
17	2023-04-18	11:46:38	12:28:27	12:28:27:473	72	2	Expectancy_rating	expectancy_rating	0	500	0	0	60	0	4835	1	When you saw the <b>object</b>,   to what <b>degree (0-100%)</b> did you expect the <b>unpleasant sound to occur</b>?	-11	16	Cue16.jpg	-11	0	0	0
17	2023-04-18	11:46:38	12:28:29	12:28:29:471	73	1	Expectancy_rating	fixation	0	5	1500	0	0	1	1495	1	+	-15	0	0	0	0	0	0
17	2023-04-18	11:46:38	12:28:32	12:28:32:489	73	2	Expectancy_rating	expectancy_rating	0	1500	0	0	50	0	2984	1	When you saw the <b>object</b>,   to what <b>degree (0-100%)</b> did you expect the <b>unpleasant sound to occur</b>?	-9	13	Cue13.jpg	-9	0	0	0
17	2023-04-18	11:46:38	12:28:34	12:28:34:988	74	1	Expectancy_rating	fixation	0	5	1000	0	0	1	995	1	+	-15	0	0	0	0	0	0
17	2023-04-18	11:46:38	12:28:38	12:28:38:923	74	2	Expectancy_rating	expectancy_rating	0	1000	0	0	100	0	3915	1	When you saw the <b>object</b>,   to what <b>degree (0-100%)</b> did you expect the <b>unpleasant sound to occur</b>?	-12	44	Object4.jpg	-12	0	0	0
17	2023-04-18	11:46:38	12:28:40	12:28:40:422	75	1	Expectancy_rating	fixation	0	5	500	0	0	1	495	1	+	-15	0	0	0	0	0	0
17	2023-04-18	11:46:38	12:28:42	12:28:42:873	75	2	Expectancy_rating	expectancy_rating	0	500	0	0	80	0	2418	1	When you saw the <b>object</b>,   to what <b>degree (0-100%)</b> did you expect the <b>unpleasant sound to occur</b>?	-11	40	Cue40.jpg	-11	0	0	0
17	2023-04-18	11:46:38	12:28:44	12:28:44:873	76	1	Expectancy_rating	fixation	0	5	1500	0	0	1	1495	1	+	-13	0	0	0	0	0	0
17	2023-04-18	11:46:38	12:28:48	12:28:48:556	76	2	Expectancy_rating	expectancy_rating	0	1500	0	0	20	0	3663	1	When you saw the <b>object</b>,   to what <b>degree (0-100%)</b> did you expect the <b>unpleasant sound to occur</b>?	-16	7	Cue7.jpg	-16	0	0	0
17	2023-04-18	11:46:38	12:28:50	12:28:50:555	77	1	Expectancy_rating	fixation	0	5	500	0	0	1	495	1	+	-15	0	0	0	0	0	0
17	2023-04-18	11:46:38	12:28:53	12:28:53:558	77	2	Expectancy_rating	expectancy_rating	0	1000	0	0	0	0	2980	1	When you saw the <b>object</b>,   to what <b>degree (0-100%)</b> did you expect the <b>unpleasant sound to occur</b>?	-11	12	Cue12.jpg	-11	0	0	0
17	2023-04-18	11:46:38	12:28:55	12:28:55:556	78	1	Expectancy_rating	fixation	0	5	1000	0	0	1	995	1	+	-15	0	0	0	0	0	0
17	2023-04-18	11:46:38	12:28:57	12:28:57:024	78	2	Expectancy_rating	expectancy_rating	0	1000	0	0	0	0	2443	1	When you saw the <b>object</b>,   to what <b>degree (0-100%)</b> did you expect the <b>unpleasant sound to occur</b>?	-12	47	Object7.jpg	-12	0	0	0
17	2023-04-18	11:46:38	12:29:00	12:29:00:524	79	1	Expectancy_rating	fixation	0	5	1500	0	0	1	1495	1	+	-14	0	0	0	0	0	0
17	2023-04-18	11:46:38	12:29:04	12:29:04:658	79	2	Expectancy_rating	expectancy_rating	0	500	0	0	30	0	4108	1	When you saw the <b>object</b>,   to what <b>degree (0-100%)</b> did you expect the <b>unpleasant sound to occur</b>?	-12	2	Cue2.jpg	-12	0	0	0
17	2023-04-18	11:46:38	12:29:05	12:29:05:657	80	1	Expectancy_rating	fixation	0	5	500	0	0	1	495	1	+	-15	0	0	0	0	0	0
17	2023-04-18	11:46:38	12:29:07	12:29:07:725	80	2	Expectancy_rating	expectancy_rating	0	1500	0	0	100	0	2039	1	When you saw the <b>object</b>,   to what <b>degree (0-100%)</b> did you expect the <b>unpleasant sound to occur</b>?	-9	10	Cue10.jpg	-9	0	0	0
17	2023-04-18	11:46:38	12:29:10	12:29:10:724	81	1	Expectancy_rating	fixation	0	5	1500	0	0	1	1495	1	+	-15	0	0	0	0	0	0
17	2023-04-18	11:46:38	12:29:15	12:29:15:775	81	2	Expectancy_rating	expectancy_rating	0	1000	0	0	93	0	5028	1	When you saw the <b>object</b>,   to what <b>degree (0-100%)</b> did you expect the <b>unpleasant sound to occur</b>?	-12	33	Cue33.jpg	-12	0	0	0
17	2023-04-18	11:46:38	12:29:17	12:29:17:774	82	1	Expectancy_rating	fixation	0	5	1000	0	0	1	995	1	+	-14	0	0	0	0	0	0
17	2023-04-18	11:46:38	12:29:21	12:29:21:059	82	2	Expectancy_rating	expectancy_rating	0	1500	0	0	41	0	4233	1	When you saw the <b>object</b>,   to what <b>degree (0-100%)</b> did you expect the <b>unpleasant sound to occur</b>?	-12	34	Cue34.jpg	-12	0	0	0
17	2023-04-18	11:46:38	12:29:24	12:29:24:542	83	1	Expectancy_rating	fixation	0	5	1000	0	0	1	995	1	+	-15	0	0	0	0	0	0
17	2023-04-18	11:46:38	12:29:29	12:29:29:760	83	2	Expectancy_rating	expectancy_rating	0	500	0	0	100	0	5194	1	When you saw the <b>object</b>,   to what <b>degree (0-100%)</b> did you expect the <b>unpleasant sound to occur</b>?	-12	5	Cue5.jpg	-12	0	0	0
17	2023-04-18	11:46:38	12:29:30	12:29:30:760	84	1	Expectancy_rating	fixation	0	5	500	0	0	1	495	1	+	-15	0	0	0	0	0	0
17	2023-04-18	11:46:38	12:29:33	12:29:33:309	84	2	Expectancy_rating	expectancy_rating	0	1000	0	0	84	0	2529	1	When you saw the <b>object</b>,   to what <b>degree (0-100%)</b> did you expect the <b>unpleasant sound to occur</b>?	-16	27	Cue27.jpg	-16	0	0	0
17	2023-04-18	11:46:38	12:29:35	12:29:35:809	85	1	Expectancy_rating	fixation	0	5	1500	0	0	1	1495	1	+	-12	0	0	0	0	0	0
17	2023-04-18	11:46:38	12:29:39	12:29:39:927	85	2	Expectancy_rating	expectancy_rating	0	500	0	0	72	0	4095	1	When you saw the <b>object</b>,   to what <b>degree (0-100%)</b> did you expect the <b>unpleasant sound to occur</b>?	-8	6	Cue6.jpg	-8	0	0	0
17	2023-04-18	11:46:38	12:29:41	12:29:41:425	86	1	Expectancy_rating	fixation	0	5	1000	0	0	1	995	1	+	-15	0	0	0	0	0	0
17	2023-04-18	11:46:38	12:29:43	12:29:43:794	86	2	Expectancy_rating	expectancy_rating	0	1500	0	0	29	0	2342	1	When you saw the <b>object</b>,   to what <b>degree (0-100%)</b> did you expect the <b>unpleasant sound to occur</b>?	-12	36	Cue36.jpg	-12	0	0	0
17	2023-04-18	11:46:38	12:29:46	12:29:46:793	87	1	Expectancy_rating	fixation	0	5	1500	0	0	1	1495	1	+	-14	0	0	0	0	0	0
17	2023-04-18	11:46:38	12:29:51	12:29:51:928	87	2	Expectancy_rating	expectancy_rating	0	1500	0	0	90	0	5111	1	When you saw the <b>object</b>,   to what <b>degree (0-100%)</b> did you expect the <b>unpleasant sound to occur</b>?	-12	8	Cue8.jpg	-12	0	0	0
17	2023-04-18	11:46:38	12:29:53	12:29:53:926	88	1	Expectancy_rating	fixation	0	5	500	0	0	1	495	1	+	-15	0	0	0	0	0	0
17	2023-04-18	11:46:38	12:30:00	12:30:00:228	88	2	Expectancy_rating	expectancy_rating	0	1000	0	0	90	0	6273	1	When you saw the <b>object</b>,   to what <b>degree (0-100%)</b> did you expect the <b>unpleasant sound to occur</b>?	-10	24	Cue24.jpg	-10	0	0	0
17	2023-04-18	11:46:38	12:30:01	12:30:01:727	89	1	Expectancy_rating	fixation	0	5	500	0	0	1	495	1	+	-15	0	0	0	0	0	0
17	2023-04-18	11:46:38	12:30:06	12:30:06:012	89	2	Expectancy_rating	expectancy_rating	0	500	0	0	80	0	5265	1	When you saw the <b>object</b>,   to what <b>degree (0-100%)</b> did you expect the <b>unpleasant sound to occur</b>?	-12	23	Cue23.jpg	-12	0	0	0
17	2023-04-18	11:46:38	12:30:08	12:30:08:510	90	1	Expectancy_rating	fixation	0	5	1000	0	0	1	995	1	+	-14	0	0	0	0	0	0
17	2023-04-18	11:46:38	12:30:10	12:30:10:146	90	2	Expectancy_rating	expectancy_rating	0	500	0	0	0	0	2609	1	When you saw the <b>object</b>,   to what <b>degree (0-100%)</b> did you expect the <b>unpleasant sound to occur</b>?	-12	37	Cue37.jpg	-12	0	0	0
17	2023-04-18	11:46:38	12:30:12	12:30:12:145	91	1	Expectancy_rating	fixation	0	5	1500	0	0	1	1495	1	+	-14	0	0	0	0	0	0
17	2023-04-18	11:46:38	12:30:15	12:30:15:195	91	2	Expectancy_rating	expectancy_rating	0	1000	0	0	91	0	3031	1	When you saw the <b>object</b>,   to what <b>degree (0-100%)</b> did you expect the <b>unpleasant sound to occur</b>?	-16	4	Cue4.jpg	-16	0	0	0
17	2023-04-18	11:46:38	12:30:17	12:30:17:694	92	1	Expectancy_rating	fixation	0	5	500	0	0	1	495	1	+	-15	0	0	0	0	0	0
17	2023-04-18	11:46:38	12:30:21	12:30:21:763	92	2	Expectancy_rating	expectancy_rating	0	1500	0	0	70	0	4041	1	When you saw the <b>object</b>,   to what <b>degree (0-100%)</b> did you expect the <b>unpleasant sound to occur</b>?	-8	3	Cue3.jpg	-8	0	0	0
17	2023-04-18	11:46:38	12:30:24	12:30:24:263	93	1	Expectancy_rating	fixation	0	5	1000	0	0	1	995	1	+	-13	0	0	0	0	0	0
17	2023-04-18	11:46:38	12:30:27	12:30:27:796	93	2	Expectancy_rating	expectancy_rating	0	1500	0	0	30	0	3482	1	When you saw the <b>object</b>,   to what <b>degree (0-100%)</b> did you expect the <b>unpleasant sound to occur</b>?	-16	38	Cue38.jpg	-16	0	0	0
17	2023-04-18	11:46:38	12:30:30	12:30:30:778	94	1	Expectancy_rating	fixation	0	5	1500	0	0	1	1495	1	+	-14	0	0	0	0	0	0
17	2023-04-18	11:46:38	12:30:35	12:30:35:230	94	2	Expectancy_rating	expectancy_rating	0	500	0	0	10	0	4429	1	When you saw the <b>object</b>,   to what <b>degree (0-100%)</b> did you expect the <b>unpleasant sound to occur</b>?	-10	32	Cue32.jpg	-10	0	0	0
17	2023-04-18	11:46:38	12:30:36	12:30:36:728	95	1	Expectancy_rating	fixation	0	5	1000	0	0	1	995	1	+	-15	0	0	0	0	0	0
17	2023-04-18	11:46:38	12:30:44	12:30:44:347	95	2	Expectancy_rating	expectancy_rating	0	1000	0	0	100	0	7598	1	When you saw the <b>object</b>,   to what <b>degree (0-100%)</b> did you expect the <b>unpleasant sound to occur</b>?	-12	48	Object8.jpg	-12	0	0	0
17	2023-04-18	11:46:38	12:30:46	12:30:46:847	96	1	Expectancy_rating	fixation	0	5	1500	0	0	1	1495	1	+	-15	0	0	0	0	0	0
17	2023-04-18	11:46:38	12:30:49	12:30:49:814	96	2	Expectancy_rating	expectancy_rating	0	500	0	0	70	0	2945	1	When you saw the <b>object</b>,   to what <b>degree (0-100%)</b> did you expect the <b>unpleasant sound to occur</b>?	-12	25	Cue25.jpg	-12	0	0	0
17	2023-04-18	11:46:38	12:30:50	12:30:50:813	97	1	Expectancy_rating	fixation	0	5	500	0	0	1	495	1	+	-15	0	0	0	0	0	0
17	2023-04-18	11:46:38	12:30:54	12:30:54:365	97	2	Expectancy_rating	expectancy_rating	0	1500	0	0	35	0	3530	1	When you saw the <b>object</b>,   to what <b>degree (0-100%)</b> did you expect the <b>unpleasant sound to occur</b>?	-10	22	Cue22.jpg	-10	0	0	0
17	2023-04-18	11:46:38	12:30:56	12:30:56:864	98	1	Expectancy_rating	fixation	0	5	1000	0	0	1	995	1	+	-14	0	0	0	0	0	0
17	2023-04-18	11:46:38	12:30:59	12:30:59:632	98	2	Expectancy_rating	expectancy_rating	0	1000	0	0	70	0	2736	1	When you saw the <b>object</b>,   to what <b>degree (0-100%)</b> did you expect the <b>unpleasant sound to occur</b>?	-16	28	Cue28.jpg	-16	0	0	0
17	2023-04-18	11:46:38	12:31:00	12:31:00:131	99	1	Expectancy_rating	fixation	0	5	500	0	0	1	495	1	+	-15	0	0	0	0	0	0
17	2023-04-18	11:46:38	12:31:04	12:31:04:648	99	2	Expectancy_rating	expectancy_rating	0	1500	0	0	74	0	3493	1	When you saw the <b>object</b>,   to what <b>degree (0-100%)</b> did you expect the <b>unpleasant sound to occur</b>?	-12	39	Cue39.jpg	-12	0	0	0
17	2023-04-18	11:46:38	12:31:07	12:31:07:647	100	1	Expectancy_rating	fixation	0	5	1500	0	0	1	1495	1	+	-14	0	0	0	0	0	0
17	2023-04-18	11:46:38	12:31:10	12:31:10:266	100	2	Expectancy_rating	expectancy_rating	0	1000	0	0	62	0	2592	1	When you saw the <b>object</b>,   to what <b>degree (0-100%)</b> did you expect the <b>unpleasant sound to occur</b>?	-12	19	Cue19.jpg	-12	0	0	0
17	2023-04-18	11:46:38	12:31:12	12:31:12:267	101	1	Expectancy_rating	fixation	0	5	1000	0	0	1	995	1	+	-10	0	0	0	0	0	0
17	2023-04-18	11:46:38	12:31:15	12:31:15:533	101	2	Expectancy_rating	expectancy_rating	0	500	0	0	0	0	3239	1	When you saw the <b>object</b>,   to what <b>degree (0-100%)</b> did you expect the <b>unpleasant sound to occur</b>?	-16	29	Cue29.jpg	-16	0	0	0
17	2023-04-18	11:46:38	12:31:17	12:31:17:534	102	1	Expectancy_rating	fixation	0	5	1500	0	0	1	1495	1	+	-9	0	0	0	0	0	0
17	2023-04-18	11:46:38	12:31:19	12:31:19:516	102	2	Expectancy_rating	expectancy_rating	0	500	0	0	0	0	1964	1	When you saw the <b>object</b>,   to what <b>degree (0-100%)</b> did you expect the <b>unpleasant sound to occur</b>?	-16	31	Cue31.jpg	-16	0	0	0
17	2023-04-18	11:46:38	12:31:20	12:31:20:515	103	1	Expectancy_rating	fixation	0	5	500	0	0	1	495	1	+	-14	0	0	0	0	0	0
17	2023-04-18	11:46:38	12:31:23	12:31:23:883	103	2	Expectancy_rating	expectancy_rating	0	1000	0	0	76	0	3317	1	When you saw the <b>object</b>,   to what <b>degree (0-100%)</b> did you expect the <b>unpleasant sound to occur</b>?	-16	35	Cue35.jpg	-16	0	0	0
17	2023-04-18	11:46:38	12:31:26	12:31:26:365	104	1	Expectancy_rating	fixation	0	5	1500	0	0	1	1495	1	+	-14	0	0	0	0	0	0
17	2023-04-18	11:46:38	12:31:29	12:31:29:366	104	2	Expectancy_rating	expectancy_rating	0	1500	0	0	0	0	2978	1	When you saw the <b>object</b>,   to what <b>degree (0-100%)</b> did you expect the <b>unpleasant sound to occur</b>?	-9	42	Object2.jpg	-9	0	0	0
17	2023-04-18	11:46:38	12:31:31	12:31:31:865	105	1	Expectancy_rating	fixation	0	5	1000	0	0	1	995	1	+	-15	0	0	0	0	0	0
17	2023-04-18	11:46:38	12:31:36	12:31:36:367	105	2	Expectancy_rating	expectancy_rating	0	1000	0	0	85	0	4478	1	When you saw the <b>object</b>,   to what <b>degree (0-100%)</b> did you expect the <b>unpleasant sound to occur</b>?	-10	14	Cue14.jpg	-10	0	0	0
17	2023-04-18	11:46:38	12:31:37	12:31:37:866	106	1	Expectancy_rating	fixation	0	5	500	0	0	1	495	1	+	-14	0	0	0	0	0	0
17	2023-04-18	11:46:38	12:31:39	12:31:39:718	106	2	Expectancy_rating	expectancy_rating	0	1500	0	0	0	0	1821	1	When you saw the <b>object</b>,   to what <b>degree (0-100%)</b> did you expect the <b>unpleasant sound to occur</b>?	-12	46	Object6.jpg	-12	0	0	0
17	2023-04-18	11:46:38	12:31:41	12:31:41:717	107	1	Expectancy_rating	fixation	0	5	500	0	0	1	495	1	+	-14	0	0	0	0	0	0
17	2023-04-18	11:46:38	12:31:44	12:31:44:284	107	2	Expectancy_rating	expectancy_rating	0	500	0	0	82	0	2547	1	When you saw the <b>object</b>,   to what <b>degree (0-100%)</b> did you expect the <b>unpleasant sound to occur</b>?	-16	11	Cue11.jpg	-16	0	0	0
17	2023-04-18	11:46:38	12:31:46	12:31:46:283	108	1	Expectancy_rating	fixation	0	5	1500	0	0	1	1495	1	+	-15	0	0	0	0	0	0
17	2023-04-18	11:46:38	12:31:48	12:31:48:951	108	2	Expectancy_rating	expectancy_rating	0	1000	0	0	86	0	2644	1	When you saw the <b>object</b>,   to what <b>degree (0-100%)</b> did you expect the <b>unpleasant sound to occur</b>?	-10	45	Object5.jpg	-10	0	0	0
17	2023-04-18	11:46:38	12:31:50	12:31:50:950	109	1	Expectancy_rating	fixation	0	5	1000	0	0	1	995	1	+	-14	0	0	0	0	0	0
17	2023-04-18	11:46:38	12:31:58	12:31:58:669	109	2	Expectancy_rating	expectancy_rating	0	500	0	0	50	0	7697	1	When you saw the <b>object</b>,   to what <b>degree (0-100%)</b> did you expect the <b>unpleasant sound to occur</b>?	-11	18	Cue18.jpg	-11	0	0	0
17	2023-04-18	11:46:38	12:32:00	12:32:00:668	110	1	Expectancy_rating	fixation	0	5	1500	0	0	1	1495	1	+	-14	0	0	0	0	0	0
17	2023-04-18	11:46:38	12:32:03	12:32:03:536	110	2	Expectancy_rating	expectancy_rating	0	1500	0	0	69	0	2836	1	When you saw the <b>object</b>,   to what <b>degree (0-100%)</b> did you expect the <b>unpleasant sound to occur</b>?	-12	17	Cue17.jpg	-12	0	0	0
17	2023-04-18	11:46:38	12:32:05	12:32:05:534	111	1	Expectancy_rating	fixation	0	5	500	0	0	1	495	1	+	-13	0	0	0	0	0	0
17	2023-04-18	11:46:38	12:32:11	12:32:11:236	111	2	Expectancy_rating	expectancy_rating	0	1000	0	0	91	0	5673	1	When you saw the <b>object</b>,   to what <b>degree (0-100%)</b> did you expect the <b>unpleasant sound to occur</b>?	-9	1	Cue1.jpg	-9	0	0	0
17	2023-04-18	11:46:38	12:32:13	12:32:13:234	112	1	Expectancy_rating	fixation	0	5	1000	0	0	1	995	1	+	-14	0	0	0	0	0	0
17	2023-04-18	11:46:38	12:32:16	12:32:16:252	112	2	Expectancy_rating	expectancy_rating	0	1500	0	0	61	0	2996	1	When you saw the <b>object</b>,   to what <b>degree (0-100%)</b> did you expect the <b>unpleasant sound to occur</b>?	-11	26	Cue26.jpg	-11	0	0	0
17	2023-04-18	11:46:38	12:32:19	12:32:19:251	113	1	Expectancy_rating	fixation	0	5	1500	0	0	1	1495	1	+	-15	0	0	0	0	0	0
17	2023-04-18	11:46:38	12:32:21	12:32:21:703	113	2	Expectancy_rating	expectancy_rating	0	500	0	0	24	0	2428	1	When you saw the <b>object</b>,   to what <b>degree (0-100%)</b> did you expect the <b>unpleasant sound to occur</b>?	-12	20	Cue20.jpg	-12	0	0	0
17	2023-04-18	11:46:38	12:32:29	12:32:29:505	114	1	countdown	instructions	0	5	0	0	57	0	7269	1	<center><br><br> <b>WATCH CALLIBRATION</b>.                <br><br><br><br>In a couple of seconds a <b>countdown</b> will start that counts down from 3 to 1,       <br><br>after which the screen will show the instruction <b>PRESS BUTTON</b>.       <br><br><b>As soon as you see that screen</b>, you must shortly press the button on your watch.       <br><br> <br><br> Press SPACE  to continue.	-14	0	0	0	0	0	0
17	2023-04-18	11:46:38	12:32:30	12:32:30:520	114	2	countdown	countdown_3	0	5	0	0	0	0	1000	1	3	-16	0	0	0	0	0	0
17	2023-04-18	11:46:38	12:32:31	12:32:31:537	114	3	countdown	countdown_2	0	5	0	0	0	0	1000	1	2	-16	0	0	0	0	0	0
17	2023-04-18	11:46:38	12:32:32	12:32:32:554	114	4	countdown	countdown_1	0	5	0	0	0	0	1000	1	1	-16	0	0	0	0	0	0
17	2023-04-18	11:46:38	12:32:33	12:32:33:571	114	5	countdown	press_button	0	5	0	0	0	0	1000	1	PRESS BUTTON NOW	-16	0	0	0	0	0	0
17	2023-04-18	11:46:38	12:32:48	12:32:48:604	115	1	continue_TNT	continue_TNT	0	5	0	0	0	0	15000	1	<center> <br><br><br> We will now continue with the next block of the attention task.   <br><br><br><center>Keep your fingers balanced on the <b>1, 2 and 3 </b>on the keyboard throughout the task   <br><br>to give the rating how well you were <b>able to think</b> or <b>not think</b> (1 = NEVER, 2 = BRIEFLY, 3 = OFTEN).	-16	0	0	0	0	0	0
17	2023-04-18	11:46:38	12:32:49	12:32:49:605	116	1	TNT_Object_CSp	fixation	0	5	1000	0	0	1	995	1	+	-15	0	0	0	0	0	0
17	2023-04-18	11:46:38	12:32:50	12:32:50:621	116	2	TNT_Object_CSp	Passive	0	5	0	0	0	0	1000	1	VIEW	-16	0	0	0	0	0	0
17	2023-04-18	11:46:38	12:32:55	12:32:55:640	116	3	TNT_Object_CSp	TNT_Object_CSp	0	1500	0	0	0	0	5000	1	Object5.jpg	-16	0	0	0	0	0	0
17	2023-04-18	11:46:38	12:32:57	12:32:57:638	117	1	TNT_Think_CSp	fixation	0	5	500	0	0	1	495	1	+	-8	0	0	0	0	0	0
17	2023-04-18	11:46:38	12:32:58	12:32:58:657	117	2	TNT_Think_CSp	Think	0	5	0	0	0	0	1000	1	THINK	-16	0	0	0	0	0	0
17	2023-04-18	11:46:38	12:33:03	12:33:03:674	117	3	TNT_Think_CSp	TNT_Think_CSp	0	5	0	0	0	0	5000	3	Cue16.jpg	-16	0	0	0	0	0	0
17	2023-04-18	11:46:38	12:33:04	12:33:04:771	117	4	TNT_Think_CSp	Intrusion	0	1000	3000	0	4	1	1080	1	How <b>often</b> did you <b>think</b> about the <b>scene</b>?   <center><br><b>NEVER (1)    BRIEFLY (2)   OFTEN (3) </b>	-16	0	0	0	0	0	0
17	2023-04-18	11:46:38	12:33:06	12:33:06:178	118	1	TNT_Object_CSm	fixation	0	5	500	0	0	1	495	1	+	-8	0	0	0	0	0	0
17	2023-04-18	11:46:38	12:33:07	12:33:07:191	118	2	TNT_Object_CSm	Passive	0	5	0	0	0	0	1000	1	VIEW	-16	0	0	0	0	0	0
17	2023-04-18	11:46:38	12:33:12	12:33:12:208	118	3	TNT_Object_CSm	TNT_Object_CSm	0	1500	0	0	0	0	5000	2	Object2.jpg	-16	0	0	0	0	0	0
17	2023-04-18	11:46:38	12:33:15	12:33:15:207	119	1	TNT_NoThink_CSp	fixation	0	5	1500	0	0	1	1495	1	+	-9	0	0	0	0	0	0
17	2023-04-18	11:46:38	12:33:17	12:33:17:225	119	2	TNT_NoThink_CSp	NoThink	0	5	0	0	0	0	1000	1	DON'T THINK	-16	0	0	0	0	0	0
17	2023-04-18	11:46:38	12:33:22	12:33:22:242	119	3	TNT_NoThink_CSp	TNT_NoThink_CSp	0	5	0	0	0	0	5000	2	Cue35.jpg	-16	0	0	0	0	0	0
17	2023-04-18	11:46:38	12:33:22	12:33:22:867	119	4	TNT_NoThink_CSp	Intrusion	0	1500	3000	0	2	1	608	1	How <b>often</b> did you <b>think</b> about the <b>scene</b>?   <center><br><b>NEVER (1)    BRIEFLY (2)   OFTEN (3) </b>	-16	0	0	0	0	0	0
17	2023-04-18	11:46:38	12:33:26	12:33:26:246	120	1	TNT_NoThink_CSm	fixation	0	5	1000	0	0	1	995	1	+	-16	0	0	0	0	0	0
17	2023-04-18	11:46:38	12:33:27	12:33:27:259	120	2	TNT_NoThink_CSm	NoThink	0	5	0	0	0	0	1000	1	DON'T THINK	-16	0	0	0	0	0	0
17	2023-04-18	11:46:38	12:33:32	12:33:32:276	120	3	TNT_NoThink_CSm	TNT_NoThink_CSm	0	5	0	0	0	0	5000	1	Cue36.jpg	-16	0	0	0	0	0	0
17	2023-04-18	11:46:38	12:33:32	12:33:32:851	120	4	TNT_NoThink_CSm	Intrusion	0	500	3000	0	2	1	559	1	How <b>often</b> did you <b>think</b> about the <b>scene</b>?   <center><br><b>NEVER (1)    BRIEFLY (2)   OFTEN (3) </b>	-16	0	0	0	0	0	0
17	2023-04-18	11:46:38	12:33:36	12:33:36:280	121	1	TNT_NoThink_CSm	fixation	0	5	1000	0	0	1	995	1	+	-16	0	0	0	0	0	0
17	2023-04-18	11:46:38	12:33:37	12:33:37:293	121	2	TNT_NoThink_CSm	NoThink	0	5	0	0	0	0	1000	1	DON'T THINK	-16	0	0	0	0	0	0
17	2023-04-18	11:46:38	12:33:42	12:33:42:310	121	3	TNT_NoThink_CSm	TNT_NoThink_CSm	0	5	0	0	0	0	5000	5	Cue12.jpg	-16	0	0	0	0	0	0
17	2023-04-18	11:46:38	12:33:42	12:33:42:979	121	4	TNT_NoThink_CSm	Intrusion	0	1500	3000	0	2	1	653	1	How <b>often</b> did you <b>think</b> about the <b>scene</b>?   <center><br><b>NEVER (1)    BRIEFLY (2)   OFTEN (3) </b>	-16	0	0	0	0	0	0
17	2023-04-18	11:46:38	12:33:46	12:33:46:814	122	1	TNT_NoThink_CSp	fixation	0	5	1500	0	0	1	1495	1	+	-5	0	0	0	0	0	0
17	2023-04-18	11:46:38	12:33:47	12:33:47:827	122	2	TNT_NoThink_CSp	NoThink	0	5	0	0	0	0	1000	1	DON'T THINK	-16	0	0	0	0	0	0
17	2023-04-18	11:46:38	12:33:52	12:33:52:844	122	3	TNT_NoThink_CSp	TNT_NoThink_CSp	0	5	0	0	0	0	5000	3	Cue1.jpg	-16	0	0	0	0	0	0
17	2023-04-18	11:46:38	12:33:53	12:33:53:507	122	4	TNT_NoThink_CSp	Intrusion	0	500	3000	0	2	1	647	1	How <b>often</b> did you <b>think</b> about the <b>scene</b>?   <center><br><b>NEVER (1)    BRIEFLY (2)   OFTEN (3) </b>	-16	0	0	0	0	0	0
17	2023-04-18	11:46:38	12:33:56	12:33:56:348	123	1	TNT_Object_CSp	fixation	0	5	500	0	0	1	495	1	+	-16	0	0	0	0	0	0
17	2023-04-18	11:46:38	12:33:57	12:33:57:360	123	2	TNT_Object_CSp	Passive	0	5	0	0	0	0	1000	1	VIEW	-16	0	0	0	0	0	0
17	2023-04-18	11:46:38	12:34:02	12:34:02:377	123	3	TNT_Object_CSp	TNT_Object_CSp	0	1000	0	0	0	0	5000	3	Object4.jpg	-16	0	0	0	0	0	0
17	2023-04-18	11:46:38	12:34:03	12:34:03:877	124	1	TNT_Think_CSm	fixation	0	5	500	0	0	1	495	1	+	-9	0	0	0	0	0	0
17	2023-04-18	11:46:38	12:34:04	12:34:04:895	124	2	TNT_Think_CSm	Think	0	5	0	0	0	0	1000	1	THINK	-16	0	0	0	0	0	0
17	2023-04-18	11:46:38	12:34:09	12:34:09:911	124	3	TNT_Think_CSm	TNT_Think_CSm	0	5	0	0	0	0	5000	1	Cue27.jpg	-16	0	0	0	0	0	0
17	2023-04-18	11:46:38	12:34:10	12:34:10:403	124	4	TNT_Think_CSm	Intrusion	0	1000	3000	0	4	1	475	1	How <b>often</b> did you <b>think</b> about the <b>scene</b>?   <center><br><b>NEVER (1)    BRIEFLY (2)   OFTEN (3) </b>	-16	0	0	0	0	0	0
17	2023-04-18	11:46:38	12:34:14	12:34:14:415	125	1	TNT_NoThink_CSm	fixation	0	5	1500	0	0	1	1495	1	+	-9	0	0	0	0	0	0
17	2023-04-18	11:46:38	12:34:15	12:34:15:429	125	2	TNT_NoThink_CSm	NoThink	0	5	0	0	0	0	1000	1	DON'T THINK	-16	0	0	0	0	0	0
17	2023-04-18	11:46:38	12:34:20	12:34:20:445	125	3	TNT_NoThink_CSm	TNT_NoThink_CSm	0	5	0	0	0	0	5000	4	Cue34.jpg	-16	0	0	0	0	0	0
17	2023-04-18	11:46:38	12:34:20	12:34:20:027	125	4	TNT_NoThink_CSm	Intrusion	0	1000	3000	0	2	1	565	1	How <b>often</b> did you <b>think</b> about the <b>scene</b>?   <center><br><b>NEVER (1)    BRIEFLY (2)   OFTEN (3) </b>	-16	0	0	0	0	0	0
17	2023-04-18	11:46:38	12:34:24	12:34:24:449	126	1	TNT_Object_CSm	fixation	0	5	1000	0	0	1	995	1	+	-9	0	0	0	0	0	0
