subject	date	time	currenttime	currenttime_plus_ms	blocknum	trialnum	blockcode	trialcode	pretrialpause	posttrialpause	trialduration	trialtimeout	response	correct	latency	stimulusnumber1	stimulusitem1	stimulusonset1	stimulusnumber2	stimulusitem2	stimulusonset2	stimulusnumber3	stimulusitem3	stimulusonset3
16	2023-04-18	16:31:40	16:32:45	16:32:45:964	1	1	countdown	instructions	0	5	0	0	57	0	5974	1	<center><br><br> <b>WATCH CALLIBRATION</b>.                <br><br><br><br>In a couple of seconds a <b>countdown</b> will start that counts down from 3 to 1,       <br><br>after which the screen will show the instruction <b>PRESS BUTTON</b>.       <br><br><b>As soon as you see that screen</b>, you must shortly press the button on your watch.       <br><br> <br><br> Press SPACE  to continue.	-16	0	0	0	0	0	0
16	2023-04-18	16:31:40	16:32:46	16:32:46:06	1	2	countdown	countdown_3	0	5	0	0	0	0	1000	1	3	-8	0	0	0	0	0	0
16	2023-04-18	16:31:40	16:32:47	16:32:47:023	1	3	countdown	countdown_2	0	5	0	0	0	0	1000	1	2	-16	0	0	0	0	0	0
16	2023-04-18	16:31:40	16:32:48	16:32:48:040	1	4	countdown	countdown_1	0	5	0	0	0	0	1000	1	1	-16	0	0	0	0	0	0
16	2023-04-18	16:31:40	16:32:49	16:32:49:056	1	5	countdown	press_button	0	5	0	0	0	0	1000	1	PRESS BUTTON NOW	-16	0	0	0	0	0	0
16	2023-04-18	16:31:40	16:35:58	16:35:58:041	2	1	Rest	Rest	0	5	0	0	0	0	180000	1	+	-8	0	0	0	0	0	0
16	2023-04-18	16:31:40	16:36:09	16:36:09:273	3	1	countdown	instructions	0	5	0	0	57	0	11189	1	<center><br><br> <b>WATCH CALLIBRATION</b>.                <br><br><br><br>In a couple of seconds a <b>countdown</b> will start that counts down from 3 to 1,       <br><br>after which the screen will show the instruction <b>PRESS BUTTON</b>.       <br><br><b>As soon as you see that screen</b>, you must shortly press the button on your watch.       <br><br> <br><br> Press SPACE  to continue.	-4	0	0	0	0	0	0
16	2023-04-18	16:31:40	16:36:10	16:36:10:318	3	2	countdown	countdown_3	0	5	0	0	0	0	1000	1	3	-8	0	0	0	0	0	0
16	2023-04-18	16:31:40	16:36:11	16:36:11:335	3	3	countdown	countdown_2	0	5	0	0	0	0	1000	1	2	-16	0	0	0	0	0	0
16	2023-04-18	16:31:40	16:36:12	16:36:12:352	3	4	countdown	countdown_1	0	5	0	0	0	0	1000	1	1	-16	0	0	0	0	0	0
16	2023-04-18	16:31:40	16:36:13	16:36:13:368	3	5	countdown	press_button	0	5	0	0	0	0	1000	1	PRESS BUTTON NOW	-16	0	0	0	0	0	0
16	2023-04-18	16:31:40	16:36:41	16:36:41:02	2	1	Reminder_Think_CSm	fixation	0	5	1000	0	0	1	995	1	+	-8	0	0	0	0	0	0
16	2023-04-18	16:31:40	16:36:46	16:36:46:036	2	2	Reminder_Think_CSm	Think_CSm	0	5	0	0	0	0	5000	1	+	-16	4	Cue4.jpg	-16	4	Target4.jpg	-16
16	2023-04-18	16:31:40	16:37:02	16:37:02:268	2	3	Reminder_Think_CSm	valence	0	5	0	0	21	0	16177	1	I found these images to be...	-3	0	0	0	0	0	0
16	2023-04-18	16:31:40	16:37:13	16:37:13:518	2	4	Reminder_Think_CSm	expectancy	0	1000	0	0	13	0	11167	1	When you saw the <b>object-scene</b>,   to what <b>degree (0-100%)</b> did you expect the <b>unpleasant sound to occur</b>?	-7	0	0	0	0	0	0
16	2023-04-18	16:31:40	16:37:15	16:37:15:01	3	1	Reminder_Think_CSp	fixation	0	5	500	0	0	1	495	1	+	-15	0	0	0	0	0	0
16	2023-04-18	16:31:40	16:37:20	16:37:20:019	3	2	Reminder_Think_CSp	Think_CSp	0	5	0	0	0	0	5000	1	+	-14	4	Cue20.jpg	-14	4	Target20.jpg	-14
16	2023-04-18	16:31:40	16:37:25	16:37:25:336	3	3	Reminder_Think_CSp	valence	0	5	0	0	30	0	5297	1	I found these images to be...	-16	0	0	0	0	0	0
16	2023-04-18	16:31:40	16:37:30	16:37:30:086	3	4	Reminder_Think_CSp	expectancy	0	500	0	0	83	0	4684	1	When you saw the <b>object-scene</b>,   to what <b>degree (0-100%)</b> did you expect the <b>unpleasant sound to occur</b>?	-12	0	0	0	0	0	0
16	2023-04-18	16:31:40	16:37:32	16:37:32:070	4	1	Reminder_NoThink_CSp	fixation	0	5	1500	0	0	1	1495	1	+	-9	0	0	0	0	0	0
16	2023-04-18	16:31:40	16:37:37	16:37:37:089	4	2	Reminder_NoThink_CSp	NoThink_CSp	0	5	0	0	0	0	5000	1	+	-16	4	Cue19.jpg	-16	4	Target19.jpg	-16
16	2023-04-18	16:31:40	16:37:41	16:37:41:804	4	3	Reminder_NoThink_CSp	valence	0	5	0	0	30	0	4686	1	I found these images to be...	-16	0	0	0	0	0	0
16	2023-04-18	16:31:40	16:37:48	16:37:48:437	4	4	Reminder_NoThink_CSp	expectancy	0	1500	0	0	21	0	6592	1	When you saw the <b>object-scene</b>,   to what <b>degree (0-100%)</b> did you expect the <b>unpleasant sound to occur</b>?	0	0	0	0	0	0	0
16	2023-04-18	16:31:40	16:37:50	16:37:50:936	5	1	Reminder_NoThink_CSm	fixation	0	5	1000	0	0	1	995	1	+	-15	0	0	0	0	0	0
16	2023-04-18	16:31:40	16:37:55	16:37:55:954	5	2	Reminder_NoThink_CSm	NoThink_CSm	0	5	0	0	0	0	5000	1	+	-16	2	Cue22.jpg	-16	2	Target22.jpg	-16
16	2023-04-18	16:31:40	16:38:00	16:38:00:138	5	3	Reminder_NoThink_CSm	valence	0	5	0	0	25	0	4154	1	I found these images to be...	-16	0	0	0	0	0	0
16	2023-04-18	16:31:40	16:38:08	16:38:08:538	5	4	Reminder_NoThink_CSm	expectancy	0	1000	0	0	5	0	8362	1	When you saw the <b>object-scene</b>,   to what <b>degree (0-100%)</b> did you expect the <b>unpleasant sound to occur</b>?	-12	0	0	0	0	0	0
16	2023-04-18	16:31:40	16:38:11	16:38:11:039	6	1	Reminder_NoThink_CSp	fixation	0	5	1500	0	0	1	1495	1	+	-15	0	0	0	0	0	0
16	2023-04-18	16:31:40	16:38:16	16:38:16:055	6	2	Reminder_NoThink_CSp	NoThink_CSp	0	5	0	0	0	0	5000	1	+	-16	1	Cue11.jpg	-16	1	Target11.jpg	-16
16	2023-04-18	16:31:40	16:38:19	16:38:19:322	6	3	Reminder_NoThink_CSp	valence	0	5	0	0	20	0	3245	1	I found these images to be...	-16	0	0	0	0	0	0
16	2023-04-18	16:31:40	16:38:24	16:38:24:039	6	4	Reminder_NoThink_CSp	expectancy	0	1500	0	0	94	0	4673	1	When you saw the <b>object-scene</b>,   to what <b>degree (0-100%)</b> did you expect the <b>unpleasant sound to occur</b>?	-12	0	0	0	0	0	0
16	2023-04-18	16:31:40	16:38:26	16:38:26:040	7	1	PracticeItems_NoThink	fixation	0	5	500	0	0	1	495	1	+	-9	0	0	0	0	0	0
16	2023-04-18	16:31:40	16:38:31	16:38:31:059	7	2	PracticeItems_NoThink	PracticeItems_NoThink	0	5	0	0	0	0	5000	1	+	-16	1	Cue39.jpg	-16	1	Target39.jpg	-16
16	2023-04-18	16:31:40	16:38:38	16:38:38:524	7	3	PracticeItems_NoThink	valence	0	5	0	0	32	0	7444	1	I found these images to be...	-16	0	0	0	0	0	0
16	2023-04-18	16:31:40	16:38:42	16:38:42:040	7	4	PracticeItems_NoThink	expectancy	0	500	0	0	72	0	3472	1	When you saw the <b>object-scene</b>,   to what <b>degree (0-100%)</b> did you expect the <b>unpleasant sound to occur</b>?	-12	0	0	0	0	0	0
16	2023-04-18	16:31:40	16:38:44	16:38:44:040	8	1	Reminder_Think_CSp	fixation	0	5	1500	0	0	1	1495	1	+	-15	0	0	0	0	0	0
16	2023-04-18	16:31:40	16:38:49	16:38:49:057	8	2	Reminder_Think_CSp	Think_CSp	0	5	0	0	0	0	5000	1	+	-16	5	Cue31.jpg	-16	5	Target31.jpg	-16
16	2023-04-18	16:31:40	16:38:52	16:38:52:407	8	3	Reminder_Think_CSp	valence	0	5	0	0	19	0	3299	1	I found these images to be...	-16	0	0	0	0	0	0
16	2023-04-18	16:31:40	16:38:57	16:38:57:374	8	4	Reminder_Think_CSp	expectancy	0	1500	0	0	78	0	4932	1	When you saw the <b>object-scene</b>,   to what <b>degree (0-100%)</b> did you expect the <b>unpleasant sound to occur</b>?	-12	0	0	0	0	0	0
16	2023-04-18	16:31:40	16:38:59	16:38:59:373	9	1	Reminder_Baseline_CSp	fixation	0	5	500	0	0	1	495	1	+	-14	0	0	0	0	0	0
16	2023-04-18	16:31:40	16:39:04	16:39:04:391	9	2	Reminder_Baseline_CSp	Baseline_CSp	0	5	0	0	0	0	5000	1	+	-14	2	Cue15.jpg	-14	2	Target15.jpg	-14
16	2023-04-18	16:31:40	16:39:08	16:39:08:575	9	3	Reminder_Baseline_CSp	valence	0	5	0	0	20	0	4132	1	I found these images to be...	-16	0	0	0	0	0	0
16	2023-04-18	16:31:40	16:39:13	16:39:13:676	9	4	Reminder_Baseline_CSp	expectancy	0	1000	0	0	18	0	5060	1	When you saw the <b>object-scene</b>,   to what <b>degree (0-100%)</b> did you expect the <b>unpleasant sound to occur</b>?	-11	0	0	0	0	0	0
16	2023-04-18	16:31:40	16:39:15	16:39:15:676	10	1	Reminder_Think_CSp	fixation	0	5	1000	0	0	1	995	1	+	-15	0	0	0	0	0	0
16	2023-04-18	16:31:40	16:39:20	16:39:20:695	10	2	Reminder_Think_CSp	Think_CSp	0	5	0	0	0	0	5000	1	+	-16	2	Cue1.jpg	-16	2	Target1.jpg	-16
16	2023-04-18	16:31:40	16:39:27	16:39:27:142	10	3	Reminder_Think_CSp	valence	0	5	0	0	32	0	6400	1	I found these images to be...	-16	0	0	0	0	0	0
16	2023-04-18	16:31:40	16:39:31	16:39:31:627	10	4	Reminder_Think_CSp	expectancy	0	500	0	0	96	0	4437	1	When you saw the <b>object-scene</b>,   to what <b>degree (0-100%)</b> did you expect the <b>unpleasant sound to occur</b>?	-11	0	0	0	0	0	0
16	2023-04-18	16:31:40	16:39:33	16:39:33:126	11	1	Reminder_NoThink_CSm	fixation	0	5	1000	0	0	1	995	1	+	-15	0	0	0	0	0	0
16	2023-04-18	16:31:40	16:39:38	16:39:38:143	11	2	Reminder_NoThink_CSm	NoThink_CSm	0	5	0	0	0	0	5000	1	+	-14	6	Cue5.jpg	-14	6	Target5.jpg	-14
16	2023-04-18	16:31:40	16:39:42	16:39:42:977	11	3	Reminder_NoThink_CSm	valence	0	5	0	0	29	0	3813	1	I found these images to be...	-16	0	0	0	0	0	0
16	2023-04-18	16:31:40	16:39:45	16:39:45:761	11	4	Reminder_NoThink_CSm	expectancy	0	1500	0	0	36	0	3747	1	When you saw the <b>object-scene</b>,   to what <b>degree (0-100%)</b> did you expect the <b>unpleasant sound to occur</b>?	-9	0	0	0	0	0	0
16	2023-04-18	16:31:40	16:39:48	16:39:48:759	12	1	Reminder_Think_CSm	fixation	0	5	1500	0	0	1	1495	1	+	-15	0	0	0	0	0	0
16	2023-04-18	16:31:40	16:39:53	16:39:53:778	12	2	Reminder_Think_CSm	Think_CSm	0	5	0	0	0	0	5000	1	+	-14	1	Cue2.jpg	-14	1	Target2.jpg	-14
16	2023-04-18	16:31:40	16:39:58	16:39:58:245	12	3	Reminder_Think_CSm	valence	0	5	0	0	18	0	4442	1	I found these images to be...	-16	0	0	0	0	0	0
16	2023-04-18	16:31:40	16:40:02	16:40:02:711	12	4	Reminder_Think_CSm	expectancy	0	500	0	0	38	0	4431	1	When you saw the <b>object-scene</b>,   to what <b>degree (0-100%)</b> did you expect the <b>unpleasant sound to occur</b>?	-12	0	0	0	0	0	0
16	2023-04-18	16:31:40	16:40:03	16:40:03:710	13	1	Reminder_NoThink_CSp	fixation	0	5	500	0	0	1	495	1	+	-15	0	0	0	0	0	0
16	2023-04-18	16:31:40	16:40:08	16:40:08:729	13	2	Reminder_NoThink_CSp	NoThink_CSp	0	5	0	0	0	0	5000	1	+	-14	2	Cue30.jpg	-14	2	Target30.jpg	-14
16	2023-04-18	16:31:40	16:40:15	16:40:15:345	13	3	Reminder_NoThink_CSp	valence	0	5	0	0	21	0	6564	1	I found these images to be...	-16	0	0	0	0	0	0
16	2023-04-18	16:31:40	16:40:19	16:40:19:029	13	4	Reminder_NoThink_CSp	expectancy	0	1000	0	0	94	0	3625	1	When you saw the <b>object-scene</b>,   to what <b>degree (0-100%)</b> did you expect the <b>unpleasant sound to occur</b>?	-6	0	0	0	0	0	0
16	2023-04-18	16:31:40	16:40:20	16:40:20:528	14	1	PracticeItems_Think	fixation	0	5	500	0	0	1	495	1	+	-15	0	0	0	0	0	0
16	2023-04-18	16:31:40	16:40:25	16:40:25:546	14	2	PracticeItems_Think	PracticeItems_Think	0	5	0	0	0	0	5000	1	+	-13	2	Cue38.jpg	-13	2	Target38.jpg	-13
16	2023-04-18	16:31:40	16:40:28	16:40:28:396	14	3	PracticeItems_Think	valence	0	5	0	0	16	0	2818	1	I found these images to be...	-16	0	0	0	0	0	0
16	2023-04-18	16:31:40	16:40:32	16:40:32:047	14	4	PracticeItems_Think	expectancy	0	500	0	0	8	0	3607	1	When you saw the <b>object-scene</b>,   to what <b>degree (0-100%)</b> did you expect the <b>unpleasant sound to occur</b>?	-12	0	0	0	0	0	0
16	2023-04-18	16:31:40	16:40:33	16:40:33:546	15	1	Reminder_Baseline_CSp	fixation	0	5	1000	0	0	1	995	1	+	-15	0	0	0	0	0	0
16	2023-04-18	16:31:40	16:40:38	16:40:38:563	15	2	Reminder_Baseline_CSp	Baseline_CSp	0	5	0	0	0	0	5000	1	+	-16	3	Cue13.jpg	-16	3	Target13.jpg	-16
16	2023-04-18	16:31:40	16:40:41	16:40:41:480	15	3	Reminder_Baseline_CSp	valence	0	5	0	0	20	0	2889	1	I found these images to be...	-16	0	0	0	0	0	0
16	2023-04-18	16:31:40	16:40:43	16:40:43:931	15	4	Reminder_Baseline_CSp	expectancy	0	1000	0	0	40	0	2411	1	When you saw the <b>object-scene</b>,   to what <b>degree (0-100%)</b> did you expect the <b>unpleasant sound to occur</b>?	-12	0	0	0	0	0	0
16	2023-04-18	16:31:40	16:40:46	16:40:46:430	16	1	Reminder_Think_CSm	fixation	0	5	1500	0	0	1	1495	1	+	-15	0	0	0	0	0	0
16	2023-04-18	16:31:40	16:40:51	16:40:51:447	16	2	Reminder_Think_CSm	Think_CSm	0	5	0	0	0	0	5000	1	+	-16	5	Cue28.jpg	-16	5	Target28.jpg	-16
16	2023-04-18	16:31:40	16:40:54	16:40:54:414	16	3	Reminder_Think_CSm	valence	0	5	0	0	21	0	2948	1	I found these images to be...	-16	0	0	0	0	0	0
16	2023-04-18	16:31:40	16:40:58	16:40:58:581	16	4	Reminder_Think_CSm	expectancy	0	1500	0	0	19	0	4125	1	When you saw the <b>object-scene</b>,   to what <b>degree (0-100%)</b> did you expect the <b>unpleasant sound to occur</b>?	-12	0	0	0	0	0	0
16	2023-04-18	16:31:40	16:41:00	16:41:00:580	17	1	Reminder_Think_CSm	fixation	0	5	500	0	0	1	495	1	+	-13	0	0	0	0	0	0
16	2023-04-18	16:31:40	16:41:05	16:41:05:601	17	2	Reminder_Think_CSm	Think_CSm	0	5	0	0	0	0	5000	1	+	-10	2	Cue26.jpg	-10	2	Target26.jpg	-10
16	2023-04-18	16:31:40	16:41:08	16:41:08:948	17	3	Reminder_Think_CSm	valence	0	5	0	0	36	0	3318	1	I found these images to be...	-16	0	0	0	0	0	0
16	2023-04-18	16:31:40	16:41:12	16:41:12:599	17	4	Reminder_Think_CSm	expectancy	0	500	0	0	44	0	3615	1	When you saw the <b>object-scene</b>,   to what <b>degree (0-100%)</b> did you expect the <b>unpleasant sound to occur</b>?	-12	0	0	0	0	0	0
16	2023-04-18	16:31:40	16:41:14	16:41:14:598	18	1	Reminder_NoThink_CSm	fixation	0	5	1500	0	0	1	1495	1	+	-15	0	0	0	0	0	0
16	2023-04-18	16:31:40	16:41:19	16:41:19:616	18	2	Reminder_NoThink_CSm	NoThink_CSm	0	5	0	0	0	0	5000	1	+	-14	4	Cue32.jpg	-14	4	Target32.jpg	-14
16	2023-04-18	16:31:40	16:41:23	16:41:23:300	18	3	Reminder_NoThink_CSm	valence	0	5	0	0	23	0	3652	1	I found these images to be...	-16	0	0	0	0	0	0
16	2023-04-18	16:31:40	16:41:28	16:41:28:767	18	4	Reminder_NoThink_CSm	expectancy	0	1500	0	0	16	0	5424	1	When you saw the <b>object-scene</b>,   to what <b>degree (0-100%)</b> did you expect the <b>unpleasant sound to occur</b>?	-12	0	0	0	0	0	0
16	2023-04-18	16:31:40	16:41:31	16:41:31:266	19	1	Reminder_Baseline_CSm	fixation	0	5	1000	0	0	1	995	1	+	-15	0	0	0	0	0	0
16	2023-04-18	16:31:40	16:41:36	16:41:36:283	19	2	Reminder_Baseline_CSm	Baseline_CSm	0	5	0	0	0	0	5000	1	+	-14	2	Cue25.jpg	-14	2	Target25.jpg	-14
16	2023-04-18	16:31:40	16:41:39	16:41:39:500	19	3	Reminder_Baseline_CSm	valence	0	5	0	0	13	0	3193	1	I found these images to be...	-16	0	0	0	0	0	0
16	2023-04-18	16:31:40	16:41:43	16:41:43:350	19	4	Reminder_Baseline_CSm	expectancy	0	1000	0	0	13	0	3807	1	When you saw the <b>object-scene</b>,   to what <b>degree (0-100%)</b> did you expect the <b>unpleasant sound to occur</b>?	-12	0	0	0	0	0	0
16	2023-04-18	16:31:40	16:41:45	16:41:45:349	20	1	Reminder_Think_CSm	fixation	0	5	1000	0	0	1	995	1	+	-14	0	0	0	0	0	0
16	2023-04-18	16:31:40	16:41:50	16:41:50:368	20	2	Reminder_Think_CSm	Think_CSm	0	5	0	0	0	0	5000	1	+	-14	3	Cue9.jpg	-14	3	Target9.jpg	-14
16	2023-04-18	16:31:40	16:41:56	16:41:56:652	20	3	Reminder_Think_CSm	valence	0	5	0	0	41	0	6252	1	I found these images to be...	-16	0	0	0	0	0	0
16	2023-04-18	16:31:40	16:42:01	16:42:01:968	20	4	Reminder_Think_CSm	expectancy	0	1500	0	0	40	0	4272	1	When you saw the <b>object-scene</b>,   to what <b>degree (0-100%)</b> did you expect the <b>unpleasant sound to occur</b>?	-10	0	0	0	0	0	0
16	2023-04-18	16:31:40	16:42:03	16:42:03:968	21	1	Reminder_Objects_CSp	fixation	0	5	500	0	0	1	495	1	+	-15	0	0	0	0	0	0
16	2023-04-18	16:31:40	16:42:08	16:42:08:985	21	2	Reminder_Objects_CSp	Objects_CSp	0	5	0	0	0	0	5000	2	Object3.jpg	-16	0	0	0	0	0	0
16	2023-04-18	16:31:40	16:42:13	16:42:13:920	21	3	Reminder_Objects_CSp	expectancy_object	0	1500	0	0	46	0	5907	1	When you saw the <b>object</b>,   to what <b>degree (0-100%)</b> did you expect the <b>unpleasant sound to occur</b>?	-16	0	0	0	0	0	0
16	2023-04-18	16:31:40	16:42:16	16:42:16:919	22	1	Reminder_Objects_CSp	fixation	0	5	1500	0	0	1	1495	1	+	-15	0	0	0	0	0	0
16	2023-04-18	16:31:40	16:42:21	16:42:21:936	22	2	Reminder_Objects_CSp	Objects_CSp	0	5	0	0	0	0	5000	4	Object2.jpg	-16	0	0	0	0	0	0
16	2023-04-18	16:31:40	16:42:25	16:42:25:402	22	3	Reminder_Objects_CSp	expectancy_object	0	1000	0	0	95	0	3444	1	When you saw the <b>object</b>,   to what <b>degree (0-100%)</b> did you expect the <b>unpleasant sound to occur</b>?	-16	0	0	0	0	0	0
16	2023-04-18	16:31:40	16:42:26	16:42:26:901	23	1	Reminder_Think_CSp	fixation	0	5	500	0	0	1	495	1	+	-15	0	0	0	0	0	0
16	2023-04-18	16:31:40	16:42:31	16:42:31:920	23	2	Reminder_Think_CSp	Think_CSp	0	5	0	0	0	0	5000	1	+	-14	6	Cue24.jpg	-14	6	Target24.jpg	-14
16	2023-04-18	16:31:40	16:42:37	16:42:37:604	23	3	Reminder_Think_CSp	valence	0	5	0	0	37	0	5652	1	I found these images to be...	-16	0	0	0	0	0	0
16	2023-04-18	16:31:40	16:42:40	16:42:40:286	23	4	Reminder_Think_CSp	expectancy	0	500	0	0	81	0	2616	1	When you saw the <b>object-scene</b>,   to what <b>degree (0-100%)</b> did you expect the <b>unpleasant sound to occur</b>?	-12	0	0	0	0	0	0
16	2023-04-18	16:31:40	16:42:41	16:42:41:769	24	1	PracticeItems_Think	fixation	0	5	1000	0	0	1	995	1	+	-13	0	0	0	0	0	0
16	2023-04-18	16:31:40	16:42:46	16:42:46:790	24	2	PracticeItems_Think	PracticeItems_Think	0	5	0	0	0	0	5000	1	+	-11	1	Cue37.jpg	-11	1	Target37.jpg	-11
16	2023-04-18	16:31:40	16:42:50	16:42:50:171	24	3	PracticeItems_Think	valence	0	5	0	0	22	0	3360	1	I found these images to be...	-16	0	0	0	0	0	0
16	2023-04-18	16:31:40	16:42:54	16:42:54:971	24	4	PracticeItems_Think	expectancy	0	1000	0	0	18	0	3760	1	When you saw the <b>object-scene</b>,   to what <b>degree (0-100%)</b> did you expect the <b>unpleasant sound to occur</b>?	-12	0	0	0	0	0	0
16	2023-04-18	16:31:40	16:42:56	16:42:56:473	25	1	Reminder_Baseline_CSm	fixation	0	5	1500	0	0	1	1495	1	+	-15	0	0	0	0	0	0
16	2023-04-18	16:31:40	16:43:01	16:43:01:488	25	2	Reminder_Baseline_CSm	Baseline_CSm	0	5	0	0	0	0	5000	1	+	-16	4	Cue33.jpg	-16	4	Target33.jpg	-16
16	2023-04-18	16:31:40	16:43:05	16:43:05:788	25	3	Reminder_Baseline_CSm	valence	0	5	0	0	18	0	4276	1	I found these images to be...	-16	0	0	0	0	0	0
16	2023-04-18	16:31:40	16:43:10	16:43:10:039	25	4	Reminder_Baseline_CSm	expectancy	0	500	0	0	4	0	4215	1	When you saw the <b>object-scene</b>,   to what <b>degree (0-100%)</b> did you expect the <b>unpleasant sound to occur</b>?	-12	0	0	0	0	0	0
16	2023-04-18	16:31:40	16:43:11	16:43:11:038	26	1	Reminder_Baseline_CSp	fixation	0	5	500	0	0	1	495	1	+	-14	0	0	0	0	0	0
16	2023-04-18	16:31:40	16:43:16	16:43:16:056	26	2	Reminder_Baseline_CSp	Baseline_CSp	0	5	0	0	0	0	5000	1	+	-14	6	Cue21.jpg	-14	6	Target21.jpg	-14
16	2023-04-18	16:31:40	16:43:22	16:43:22:907	26	3	Reminder_Baseline_CSp	valence	0	5	0	0	34	0	6820	1	I found these images to be...	-16	0	0	0	0	0	0
16	2023-04-18	16:31:40	16:43:25	16:43:25:806	26	4	Reminder_Baseline_CSp	expectancy	0	1500	0	0	30	0	2865	1	When you saw the <b>object-scene</b>,   to what <b>degree (0-100%)</b> did you expect the <b>unpleasant sound to occur</b>?	-12	0	0	0	0	0	0
16	2023-04-18	16:31:40	16:43:28	16:43:28:805	27	1	Reminder_Objects_CSm	fixation	0	5	1500	0	0	1	1495	1	+	-15	0	0	0	0	0	0
16	2023-04-18	16:31:40	16:43:33	16:43:33:825	27	2	Reminder_Objects_CSm	Objects_CSm	0	5	0	0	0	0	5000	1	Object5.jpg	-15	0	0	0	0	0	0
16	2023-04-18	16:31:40	16:43:36	16:43:36:907	27	3	Reminder_Objects_CSm	expectancy_object	0	500	0	0	7	0	3052	1	When you saw the <b>object</b>,   to what <b>degree (0-100%)</b> did you expect the <b>unpleasant sound to occur</b>?	-16	0	0	0	0	0	0
16	2023-04-18	16:31:40	16:43:38	16:43:38:406	28	1	Reminder_Objects_CSp	fixation	0	5	1000	0	0	1	995	1	+	-15	0	0	0	0	0	0
16	2023-04-18	16:31:40	16:43:43	16:43:43:424	28	2	Reminder_Objects_CSp	Objects_CSp	0	5	0	0	0	0	5000	3	Object4.jpg	-16	0	0	0	0	0	0
16	2023-04-18	16:31:40	16:43:47	16:43:47:774	28	3	Reminder_Objects_CSp	expectancy_object	0	1000	0	0	34	0	4332	1	When you saw the <b>object</b>,   to what <b>degree (0-100%)</b> did you expect the <b>unpleasant sound to occur</b>?	-16	0	0	0	0	0	0
16	2023-04-18	16:31:40	16:43:49	16:43:49:774	29	1	Reminder_Baseline_CSp	fixation	0	5	1000	0	0	1	995	1	+	-15	0	0	0	0	0	0
16	2023-04-18	16:31:40	16:43:54	16:43:54:791	29	2	Reminder_Baseline_CSp	Baseline_CSp	0	5	0	0	0	0	5000	1	+	-16	1	Cue3.jpg	-16	1	Target3.jpg	-16
16	2023-04-18	16:31:40	16:43:57	16:43:57:575	29	3	Reminder_Baseline_CSp	valence	0	5	0	0	29	0	2757	1	I found these images to be...	-16	0	0	0	0	0	0
16	2023-04-18	16:31:40	16:43:59	16:43:59:925	29	4	Reminder_Baseline_CSp	expectancy	0	1000	0	0	59	0	2309	1	When you saw the <b>object-scene</b>,   to what <b>degree (0-100%)</b> did you expect the <b>unpleasant sound to occur</b>?	-12	0	0	0	0	0	0
16	2023-04-18	16:31:40	16:44:01	16:44:01:424	30	1	Reminder_NoThink_CSp	fixation	0	5	500	0	0	1	495	1	+	-15	0	0	0	0	0	0
16	2023-04-18	16:31:40	16:44:06	16:44:06:442	30	2	Reminder_NoThink_CSp	NoThink_CSp	0	5	0	0	0	0	5000	1	+	-13	3	Cue6.jpg	-13	3	Target6.jpg	-13
16	2023-04-18	16:31:40	16:44:12	16:44:12:143	30	3	Reminder_NoThink_CSp	valence	0	5	0	0	42	0	5674	1	I found these images to be...	-16	0	0	0	0	0	0
16	2023-04-18	16:31:40	16:44:18	16:44:18:409	30	4	Reminder_NoThink_CSp	expectancy	0	1500	0	0	15	0	6221	1	When you saw the <b>object-scene</b>,   to what <b>degree (0-100%)</b> did you expect the <b>unpleasant sound to occur</b>?	-12	0	0	0	0	0	0
16	2023-04-18	16:31:40	16:44:21	16:44:21:411	31	1	Reminder_Objects_CSp	fixation	0	5	1500	0	0	1	1495	1	+	-13	0	0	0	0	0	0
16	2023-04-18	16:31:40	16:44:26	16:44:26:428	31	2	Reminder_Objects_CSp	Objects_CSp	0	5	0	0	0	0	5000	1	Object7.jpg	-16	0	0	0	0	0	0
16	2023-04-18	16:31:40	16:44:29	16:44:29:360	31	3	Reminder_Objects_CSp	expectancy_object	0	1500	0	0	40	0	2913	1	When you saw the <b>object</b>,   to what <b>degree (0-100%)</b> did you expect the <b>unpleasant sound to occur</b>?	-16	0	0	0	0	0	0
16	2023-04-18	16:31:40	16:44:31	16:44:31:859	32	1	Reminder_NoThink_CSp	fixation	0	5	1000	0	0	1	995	1	+	-14	0	0	0	0	0	0
16	2023-04-18	16:31:40	16:44:36	16:44:36:877	32	2	Reminder_NoThink_CSp	NoThink_CSp	0	5	0	0	0	0	5000	1	+	-13	6	Cue27.jpg	-13	6	Target27.jpg	-13
16	2023-04-18	16:31:40	16:44:43	16:44:43:310	32	3	Reminder_NoThink_CSp	valence	0	5	0	0	24	0	6383	1	I found these images to be...	-16	0	0	0	0	0	0
16	2023-04-18	16:31:40	16:44:47	16:44:47:145	32	4	Reminder_NoThink_CSp	expectancy	0	1000	0	0	84	0	3796	1	When you saw the <b>object-scene</b>,   to what <b>degree (0-100%)</b> did you expect the <b>unpleasant sound to occur</b>?	-11	0	0	0	0	0	0
16	2023-04-18	16:31:40	16:44:49	16:44:49:643	33	1	Reminder_NoThink_CSp	fixation	0	5	1500	0	0	1	1495	1	+	-15	0	0	0	0	0	0
16	2023-04-18	16:31:40	16:44:54	16:44:54:661	33	2	Reminder_NoThink_CSp	NoThink_CSp	0	5	0	0	0	0	5000	1	+	-14	5	Cue34.jpg	-14	5	Target34.jpg	-14
16	2023-04-18	16:31:40	16:44:58	16:44:58:045	33	3	Reminder_NoThink_CSp	valence	0	5	0	0	41	0	3358	1	I found these images to be...	-16	0	0	0	0	0	0
16	2023-04-18	16:31:40	16:45:06	16:45:06:879	33	4	Reminder_NoThink_CSp	expectancy	0	500	0	0	80	0	8799	1	When you saw the <b>object-scene</b>,   to what <b>degree (0-100%)</b> did you expect the <b>unpleasant sound to occur</b>?	-11	0	0	0	0	0	0
16	2023-04-18	16:31:40	16:45:07	16:45:07:878	34	1	Reminder_Baseline_CSm	fixation	0	5	500	0	0	1	495	1	+	-15	0	0	0	0	0	0
16	2023-04-18	16:31:40	16:45:12	16:45:12:895	34	2	Reminder_Baseline_CSm	Baseline_CSm	0	5	0	0	0	0	5000	1	+	-16	6	Cue18.jpg	-16	6	Target18.jpg	-16
16	2023-04-18	16:31:40	16:45:18	16:45:18:862	34	3	Reminder_Baseline_CSm	valence	0	5	0	0	16	0	5917	1	I found these images to be...	-16	0	0	0	0	0	0
16	2023-04-18	16:31:40	16:45:23	16:45:23:363	34	4	Reminder_Baseline_CSm	expectancy	0	1000	0	0	4	0	4436	1	When you saw the <b>object-scene</b>,   to what <b>degree (0-100%)</b> did you expect the <b>unpleasant sound to occur</b>?	-8	0	0	0	0	0	0
16	2023-04-18	16:31:40	16:45:24	16:45:24:862	35	1	Reminder_Objects_CSm	fixation	0	5	500	0	0	1	495	1	+	-14	0	0	0	0	0	0
16	2023-04-18	16:31:40	16:45:29	16:45:29:879	35	2	Reminder_Objects_CSm	Objects_CSm	0	5	0	0	0	0	5000	3	Object1.jpg	-16	0	0	0	0	0	0
16	2023-04-18	16:31:40	16:45:32	16:45:32:647	35	3	Reminder_Objects_CSm	expectancy_object	0	500	0	0	18	0	2740	1	When you saw the <b>object</b>,   to what <b>degree (0-100%)</b> did you expect the <b>unpleasant sound to occur</b>?	-16	0	0	0	0	0	0
16	2023-04-18	16:31:40	16:45:34	16:45:34:646	36	1	Reminder_NoThink_CSm	fixation	0	5	1500	0	0	1	1495	1	+	-15	0	0	0	0	0	0
16	2023-04-18	16:31:40	16:45:39	16:45:39:664	36	2	Reminder_NoThink_CSm	NoThink_CSm	0	5	0	0	0	0	5000	1	+	-13	3	Cue14.jpg	-13	3	Target14.jpg	-13
16	2023-04-18	16:31:40	16:45:43	16:45:43:948	36	3	Reminder_NoThink_CSm	valence	0	5	0	0	39	0	4252	1	I found these images to be...	-16	0	0	0	0	0	0
16	2023-04-18	16:31:40	16:45:47	16:45:47:865	36	4	Reminder_NoThink_CSm	expectancy	0	500	0	0	20	0	3872	1	When you saw the <b>object-scene</b>,   to what <b>degree (0-100%)</b> did you expect the <b>unpleasant sound to occur</b>?	-12	0	0	0	0	0	0
16	2023-04-18	16:31:40	16:45:49	16:45:49:363	37	1	Reminder_Baseline_CSp	fixation	0	5	1000	0	0	1	995	1	+	-15	0	0	0	0	0	0
16	2023-04-18	16:31:40	16:45:54	16:45:54:381	37	2	Reminder_Baseline_CSp	Baseline_CSp	0	5	0	0	0	0	5000	1	+	-14	5	Cue23.jpg	-14	5	Target23.jpg	-14
16	2023-04-18	16:31:40	16:45:57	16:45:57:315	37	3	Reminder_Baseline_CSp	valence	0	5	0	0	14	0	2902	1	I found these images to be...	-16	0	0	0	0	0	0
16	2023-04-18	16:31:40	16:46:00	16:46:00:916	37	4	Reminder_Baseline_CSp	expectancy	0	1500	0	0	93	0	3560	1	When you saw the <b>object-scene</b>,   to what <b>degree (0-100%)</b> did you expect the <b>unpleasant sound to occur</b>?	-12	0	0	0	0	0	0
16	2023-04-18	16:31:40	16:46:02	16:46:02:915	38	1	Reminder_Objects_CSm	fixation	0	5	500	0	0	1	495	1	+	-12	0	0	0	0	0	0
16	2023-04-18	16:31:40	16:46:07	16:46:07:934	38	2	Reminder_Objects_CSm	Objects_CSm	0	5	0	0	0	0	5000	2	Object8.jpg	-16	0	0	0	0	0	0
16	2023-04-18	16:31:40	16:46:15	16:46:15:733	38	3	Reminder_Objects_CSm	expectancy_object	0	1000	0	0	10	0	7776	1	When you saw the <b>object</b>,   to what <b>degree (0-100%)</b> did you expect the <b>unpleasant sound to occur</b>?	-16	0	0	0	0	0	0
16	2023-04-18	16:31:40	16:46:17	16:46:17:732	39	1	Reminder_Objects_CSm	fixation	0	5	1000	0	0	1	995	1	+	-15	0	0	0	0	0	0
16	2023-04-18	16:31:40	16:46:22	16:46:22:750	39	2	Reminder_Objects_CSm	Objects_CSm	0	5	0	0	0	0	5000	4	Object6.jpg	-16	0	0	0	0	0	0
16	2023-04-18	16:31:40	16:46:26	16:46:26:484	39	3	Reminder_Objects_CSm	expectancy_object	0	500	0	0	18	0	3710	1	When you saw the <b>object</b>,   to what <b>degree (0-100%)</b> did you expect the <b>unpleasant sound to occur</b>?	-16	0	0	0	0	0	0
16	2023-04-18	16:31:40	16:46:28	16:46:28:482	40	1	Reminder_NoThink_CSm	fixation	0	5	1500	0	0	1	1495	1	+	-15	0	0	0	0	0	0
16	2023-04-18	16:31:40	16:46:33	16:46:33:500	40	2	Reminder_NoThink_CSm	NoThink_CSm	0	5	0	0	0	0	5000	1	+	-14	1	Cue29.jpg	-14	1	Target29.jpg	-14
16	2023-04-18	16:31:40	16:46:36	16:46:36:884	40	3	Reminder_NoThink_CSm	valence	0	5	0	0	21	0	3352	1	I found these images to be...	-16	0	0	0	0	0	0
16	2023-04-18	16:31:40	16:46:40	16:46:40:384	40	4	Reminder_NoThink_CSm	expectancy	0	500	0	0	3	0	3455	1	When you saw the <b>object-scene</b>,   to what <b>degree (0-100%)</b> did you expect the <b>unpleasant sound to occur</b>?	-12	0	0	0	0	0	0
16	2023-04-18	16:31:40	16:46:42	16:46:42:384	41	1	Reminder_Baseline_CSm	fixation	0	5	1500	0	0	1	1495	1	+	-15	0	0	0	0	0	0
16	2023-04-18	16:31:40	16:46:47	16:46:47:401	41	2	Reminder_Baseline_CSm	Baseline_CSm	0	5	0	0	0	0	5000	1	+	-14	1	Cue7.jpg	-14	1	Target7.jpg	-14
16	2023-04-18	16:31:40	16:46:50	16:46:50:718	41	3	Reminder_Baseline_CSm	valence	0	5	0	0	9	0	3291	1	I found these images to be...	-16	0	0	0	0	0	0
16	2023-04-18	16:31:40	16:46:53	16:46:53:635	41	4	Reminder_Baseline_CSm	expectancy	0	1000	0	0	81	0	2877	1	When you saw the <b>object-scene</b>,   to what <b>degree (0-100%)</b> did you expect the <b>unpleasant sound to occur</b>?	-10	0	0	0	0	0	0
16	2023-04-18	16:31:40	16:46:55	16:46:55:635	42	1	Reminder_Think_CSm	fixation	0	5	1000	0	0	1	995	1	+	-13	0	0	0	0	0	0
16	2023-04-18	16:31:40	16:47:00	16:47:00:654	42	2	Reminder_Think_CSm	Think_CSm	0	5	0	0	0	0	5000	1	+	-16	6	Cue17.jpg	-16	6	Target17.jpg	-16
16	2023-04-18	16:31:40	16:47:03	16:47:03:786	42	3	Reminder_Think_CSm	valence	0	5	0	0	27	0	3104	1	I found these images to be...	-16	0	0	0	0	0	0
16	2023-04-18	16:31:40	16:47:06	16:47:06:702	42	4	Reminder_Think_CSm	expectancy	0	1500	0	0	36	0	2882	1	When you saw the <b>object-scene</b>,   to what <b>degree (0-100%)</b> did you expect the <b>unpleasant sound to occur</b>?	-12	0	0	0	0	0	0
16	2023-04-18	16:31:40	16:47:08	16:47:08:702	43	1	Reminder_Think_CSp	fixation	0	5	500	0	0	1	495	1	+	-15	0	0	0	0	0	0
16	2023-04-18	16:31:40	16:47:13	16:47:13:719	43	2	Reminder_Think_CSp	Think_CSp	0	5	0	0	0	0	5000	1	+	-13	3	Cue12.jpg	-13	3	Target12.jpg	-13
16	2023-04-18	16:31:40	16:47:18	16:47:18:369	43	3	Reminder_Think_CSp	valence	0	5	0	0	31	0	4621	1	I found these images to be...	-16	0	0	0	0	0	0
16	2023-04-18	16:31:40	16:47:21	16:47:21:886	43	4	Reminder_Think_CSp	expectancy	0	1500	0	0	82	0	3449	1	When you saw the <b>object-scene</b>,   to what <b>degree (0-100%)</b> did you expect the <b>unpleasant sound to occur</b>?	-10	0	0	0	0	0	0
16	2023-04-18	16:31:40	16:47:23	16:47:23:869	44	1	Reminder_Baseline_CSp	fixation	0	5	500	0	0	1	495	1	+	-15	0	0	0	0	0	0
16	2023-04-18	16:31:40	16:47:28	16:47:28:887	44	2	Reminder_Baseline_CSp	Baseline_CSp	0	5	0	0	0	0	5000	1	+	-14	4	Cue8.jpg	-14	4	Target8.jpg	-14
16	2023-04-18	16:31:40	16:47:31	16:47:31:804	44	3	Reminder_Baseline_CSp	valence	0	5	0	0	18	0	2893	1	I found these images to be...	-16	0	0	0	0	0	0
16	2023-04-18	16:31:40	16:47:35	16:47:35:171	44	4	Reminder_Baseline_CSp	expectancy	0	1000	0	0	94	0	3320	1	When you saw the <b>object-scene</b>,   to what <b>degree (0-100%)</b> did you expect the <b>unpleasant sound to occur</b>?	-11	0	0	0	0	0	0
16	2023-04-18	16:31:40	16:47:37	16:47:37:170	45	1	Reminder_NoThink_CSm	fixation	0	5	1000	0	0	1	995	1	+	-15	0	0	0	0	0	0
16	2023-04-18	16:31:40	16:47:42	16:47:42:187	45	2	Reminder_NoThink_CSm	NoThink_CSm	0	5	0	0	0	0	5000	1	+	-16	5	Cue16.jpg	-16	5	Target16.jpg	-16
16	2023-04-18	16:31:40	16:47:51	16:47:51:755	45	3	Reminder_NoThink_CSm	valence	0	5	0	0	38	0	9512	1	I found these images to be...	-16	0	0	0	0	0	0
16	2023-04-18	16:31:40	16:47:55	16:47:55:905	45	4	Reminder_NoThink_CSm	expectancy	0	500	0	0	20	0	4088	1	When you saw the <b>object-scene</b>,   to what <b>degree (0-100%)</b> did you expect the <b>unpleasant sound to occur</b>?	-8	0	0	0	0	0	0
16	2023-04-18	16:31:40	16:47:57	16:47:57:905	46	1	Reminder_Baseline_CSm	fixation	0	5	1500	0	0	1	1495	1	+	-15	0	0	0	0	0	0
16	2023-04-18	16:31:40	16:48:02	16:48:02:922	46	2	Reminder_Baseline_CSm	Baseline_CSm	0	5	0	0	0	0	5000	1	+	-14	5	Cue36.jpg	-14	5	Target36.jpg	-14
16	2023-04-18	16:31:40	16:48:12	16:48:12:040	46	3	Reminder_Baseline_CSm	valence	0	5	0	0	21	0	9090	1	I found these images to be...	-16	0	0	0	0	0	0
16	2023-04-18	16:31:40	16:48:15	16:48:15:290	46	4	Reminder_Baseline_CSm	expectancy	0	500	0	0	5	0	3212	1	When you saw the <b>object-scene</b>,   to what <b>degree (0-100%)</b> did you expect the <b>unpleasant sound to occur</b>?	-12	0	0	0	0	0	0
16	2023-04-18	16:31:40	16:48:16	16:48:16:289	47	1	Reminder_Baseline_CSm	fixation	0	5	500	0	0	1	495	1	+	-15	0	0	0	0	0	0
16	2023-04-18	16:31:40	16:48:21	16:48:21:306	47	2	Reminder_Baseline_CSm	Baseline_CSm	0	5	0	0	0	0	5000	1	+	-16	3	Cue10.jpg	-16	3	Target10.jpg	-16
16	2023-04-18	16:31:40	16:48:24	16:48:24:440	47	3	Reminder_Baseline_CSm	valence	0	5	0	0	20	0	3113	1	I found these images to be...	-16	0	0	0	0	0	0
16	2023-04-18	16:31:40	16:48:27	16:48:27:924	47	4	Reminder_Baseline_CSm	expectancy	0	1000	0	0	11	0	3435	1	When you saw the <b>object-scene</b>,   to what <b>degree (0-100%)</b> did you expect the <b>unpleasant sound to occur</b>?	-12	0	0	0	0	0	0
16	2023-04-18	16:31:40	16:48:29	16:48:29:923	48	1	PracticeItems_NoThink	fixation	0	5	1000	0	0	1	995	1	+	-15	0	0	0	0	0	0
16	2023-04-18	16:31:40	16:48:34	16:48:34:943	48	2	PracticeItems_NoThink	PracticeItems_NoThink	0	5	0	0	0	0	5000	1	+	-14	2	Cue40.jpg	-14	2	Target40.jpg	-14
16	2023-04-18	16:31:40	16:48:40	16:48:40:458	48	3	PracticeItems_NoThink	valence	0	5	0	0	40	0	5487	1	I found these images to be...	-16	0	0	0	0	0	0
16	2023-04-18	16:31:40	16:48:42	16:48:42:942	48	4	PracticeItems_NoThink	expectancy	0	1500	0	0	88	0	2442	1	When you saw the <b>object-scene</b>,   to what <b>degree (0-100%)</b> did you expect the <b>unpleasant sound to occur</b>?	-12	0	0	0	0	0	0
16	2023-04-18	16:31:40	16:48:45	16:48:45:940	49	1	Reminder_Think_CSp	fixation	0	5	1500	0	0	1	1495	1	+	-15	0	0	0	0	0	0
16	2023-04-18	16:31:40	16:48:50	16:48:50:958	49	2	Reminder_Think_CSp	Think_CSp	0	5	0	0	0	0	5000	1	+	-14	1	Cue35.jpg	-14	1	Target35.jpg	-14
16	2023-04-18	16:31:40	16:48:55	16:48:55:059	49	3	Reminder_Think_CSp	valence	0	5	0	0	35	0	4070	1	I found these images to be...	-16	0	0	0	0	0	0
16	2023-04-18	16:31:40	16:48:58	16:48:58:958	49	4	Reminder_Think_CSp	expectancy	0	1000	0	0	40	0	3865	1	When you saw the <b>object-scene</b>,   to what <b>degree (0-100%)</b> did you expect the <b>unpleasant sound to occur</b>?	-12	0	0	0	0	0	0
16	2023-04-18	16:31:40	16:52:01	16:52:01:504	2	1	Practice_Think	fixation	0	5	1500	0	0	1	1495	1	+	-8	0	0	0	0	0	0
16	2023-04-18	16:31:40	16:52:02	16:52:02:519	2	2	Practice_Think	Think	0	5	0	0	0	0	1000	1	THINK	-16	0	0	0	0	0	0
16	2023-04-18	16:31:40	16:52:07	16:52:07:536	2	3	Practice_Think	ThinkCue	0	5	0	0	0	1	5000	1	Cue37.jpg	-16	0	0	0	0	0	0
16	2023-04-18	16:31:40	16:52:09	16:52:09:061	2	4	Practice_Think	Intrusion	0	1500	3000	0	0	0	1500	1	How <b>often</b> did you <b>think</b> about the <b>scene</b>?   <center><br><b>NEVER (1)    BRIEFLY (2)   OFTEN (3) </b>	-14	0	0	0	0	0	0
16	2023-04-18	16:31:40	16:52:11	16:52:11:540	3	1	Practice_NoThink	fixation	0	5	1000	0	0	1	995	1	+	-16	0	0	0	0	0	0
16	2023-04-18	16:31:40	16:52:12	16:52:12:553	3	2	Practice_NoThink	NoThink	0	5	0	0	0	0	1000	1	DON'T THINK	-16	0	0	0	0	0	0
16	2023-04-18	16:31:40	16:52:17	16:52:17:570	3	3	Practice_NoThink	NoThinkCue	0	5	0	0	0	1	5000	1	Cue39.jpg	-16	0	0	0	0	0	0
16	2023-04-18	16:31:40	16:52:18	16:52:18:465	3	4	Practice_NoThink	Intrusion	0	1000	3000	0	2	1	877	1	How <b>often</b> did you <b>think</b> about the <b>scene</b>?   <center><br><b>NEVER (1)    BRIEFLY (2)   OFTEN (3) </b>	-16	0	0	0	0	0	0
16	2023-04-18	16:31:40	16:52:21	16:52:21:075	4	1	Practice_Think	fixation	0	5	500	0	0	1	495	1	+	-16	0	0	0	0	0	0
16	2023-04-18	16:31:40	16:52:22	16:52:22:087	4	2	Practice_Think	Think	0	5	0	0	0	0	1000	1	THINK	-16	0	0	0	0	0	0
16	2023-04-18	16:31:40	16:52:27	16:52:27:104	4	3	Practice_Think	ThinkCue	0	5	0	0	0	1	5000	2	Cue38.jpg	-16	0	0	0	0	0	0
16	2023-04-18	16:31:40	16:52:28	16:52:28:049	4	4	Practice_Think	Intrusion	0	500	3000	0	4	1	927	1	How <b>often</b> did you <b>think</b> about the <b>scene</b>?   <center><br><b>NEVER (1)    BRIEFLY (2)   OFTEN (3) </b>	-16	0	0	0	0	0	0
16	2023-04-18	16:31:40	16:52:31	16:52:31:607	5	1	Practice_NoThink	fixation	0	5	1500	0	0	1	1495	1	+	-8	0	0	0	0	0	0
16	2023-04-18	16:31:40	16:52:32	16:52:32:621	5	2	Practice_NoThink	NoThink	0	5	0	0	0	0	1000	1	DON'T THINK	-16	0	0	0	0	0	0
16	2023-04-18	16:31:40	16:52:37	16:52:37:638	5	3	Practice_NoThink	NoThinkCue	0	5	0	0	0	1	5000	2	Cue40.jpg	-16	0	0	0	0	0	0
16	2023-04-18	16:31:40	16:52:38	16:52:38:289	5	4	Practice_NoThink	Intrusion	0	1000	3000	0	3	1	633	1	How <b>often</b> did you <b>think</b> about the <b>scene</b>?   <center><br><b>NEVER (1)    BRIEFLY (2)   OFTEN (3) </b>	-16	0	0	0	0	0	0
16	2023-04-18	16:31:40	16:55:30	16:55:30:257	6	1	Practice_Betweenblocks1	Practice_Betweenblocks1	0	5	0	0	57	1	169568	1	<center><br><br><br><br>This is the end of the first practice round. <br><br>There will be 2 more practice rounds.  <br><br> Please await further instruction from the experimenter.	-7	0	0	0	0	0	0
16	2023-04-18	16:31:40	16:55:31	16:55:31:258	7	1	Practice_Think	fixation	0	5	1000	0	0	1	995	1	+	-8	0	0	0	0	0	0
16	2023-04-18	16:31:40	16:55:32	16:55:32:281	7	2	Practice_Think	Think	0	5	0	0	0	0	1000	1	THINK	-8	0	0	0	0	0	0
16	2023-04-18	16:31:40	16:55:37	16:55:37:298	7	3	Practice_Think	ThinkCue	0	5	0	0	0	1	5000	1	Cue37.jpg	-16	0	0	0	0	0	0
16	2023-04-18	16:31:40	16:55:38	16:55:38:192	7	4	Practice_Think	Intrusion	0	500	3000	0	4	1	877	1	How <b>often</b> did you <b>think</b> about the <b>scene</b>?   <center><br><b>NEVER (1)    BRIEFLY (2)   OFTEN (3) </b>	-16	0	0	0	0	0	0
16	2023-04-18	16:31:40	16:55:40	16:55:40:802	8	1	Practice_NoThink	fixation	0	5	500	0	0	1	495	1	+	-16	0	0	0	0	0	0
16	2023-04-18	16:31:40	16:55:41	16:55:41:815	8	2	Practice_NoThink	NoThink	0	5	0	0	0	0	1000	1	DON'T THINK	-16	0	0	0	0	0	0
16	2023-04-18	16:31:40	16:55:46	16:55:46:832	8	3	Practice_NoThink	NoThinkCue	0	5	0	0	0	1	5000	1	Cue39.jpg	-16	0	0	0	0	0	0
16	2023-04-18	16:31:40	16:55:47	16:55:47:824	8	4	Practice_NoThink	Intrusion	0	1500	3000	0	2	1	975	1	How <b>often</b> did you <b>think</b> about the <b>scene</b>?   <center><br><b>NEVER (1)    BRIEFLY (2)   OFTEN (3) </b>	-16	0	0	0	0	0	0
16	2023-04-18	16:31:40	16:55:51	16:55:51:336	9	1	Practice_Think	fixation	0	5	1500	0	0	1	1495	1	+	-16	0	0	0	0	0	0
16	2023-04-18	16:31:40	16:55:52	16:55:52:349	9	2	Practice_Think	Think	0	5	0	0	0	0	1000	1	THINK	-16	0	0	0	0	0	0
16	2023-04-18	16:31:40	16:55:57	16:55:57:366	9	3	Practice_Think	ThinkCue	0	5	0	0	0	1	5000	2	Cue38.jpg	-16	0	0	0	0	0	0
16	2023-04-18	16:31:40	16:55:58	16:55:58:369	9	4	Practice_Think	Intrusion	0	1500	3000	0	4	1	985	1	How <b>often</b> did you <b>think</b> about the <b>scene</b>?   <center><br><b>NEVER (1)    BRIEFLY (2)   OFTEN (3) </b>	-16	0	0	0	0	0	0
16	2023-04-18	16:31:40	16:56:01	16:56:01:870	10	1	Practice_NoThink	fixation	0	5	500	0	0	1	495	1	+	-16	0	0	0	0	0	0
16	2023-04-18	16:31:40	16:56:02	16:56:02:882	10	2	Practice_NoThink	NoThink	0	5	0	0	0	0	1000	1	DON'T THINK	-16	0	0	0	0	0	0
16	2023-04-18	16:31:40	16:56:07	16:56:07:899	10	3	Practice_NoThink	NoThinkCue	0	5	0	0	0	1	5000	2	Cue40.jpg	-16	0	0	0	0	0	0
16	2023-04-18	16:31:40	16:56:08	16:56:08:905	10	4	Practice_NoThink	Intrusion	0	1000	3000	0	2	1	988	1	How <b>often</b> did you <b>think</b> about the <b>scene</b>?   <center><br><b>NEVER (1)    BRIEFLY (2)   OFTEN (3) </b>	-16	0	0	0	0	0	0
16	2023-04-18	16:31:40	16:57:05	16:57:05:864	11	1	Practice_Betweenblocks2	Practice_Betweenblocks2	0	5	0	0	57	1	54914	1	<center><br><br><br><br>This is the end of the second practice round. <br><br>There will be 1 more practice round.  <br><br> Please await further instruction from the experimenter.	-3	0	0	0	0	0	0
16	2023-04-18	16:31:40	16:57:06	16:57:06:866	12	1	Practice_Think	fixation	0	5	1000	0	0	1	995	1	+	-8	0	0	0	0	0	0
16	2023-04-18	16:31:40	16:57:07	16:57:07:886	12	2	Practice_Think	Think	0	5	0	0	0	0	1000	1	THINK	-8	0	0	0	0	0	0
16	2023-04-18	16:31:40	16:57:12	16:57:12:903	12	3	Practice_Think	ThinkCue	0	5	0	0	0	1	5000	1	Cue37.jpg	-16	0	0	0	0	0	0
16	2023-04-18	16:31:40	16:57:13	16:57:13:08	12	4	Practice_Think	Intrusion	0	500	3000	0	4	1	1088	1	How <b>often</b> did you <b>think</b> about the <b>scene</b>?   <center><br><b>NEVER (1)    BRIEFLY (2)   OFTEN (3) </b>	-16	0	0	0	0	0	0
16	2023-04-18	16:31:40	16:57:15	16:57:15:407	13	1	Practice_Think	fixation	0	5	500	0	0	1	495	1	+	-16	0	0	0	0	0	0
16	2023-04-18	16:31:40	16:57:16	16:57:16:420	13	2	Practice_Think	Think	0	5	0	0	0	0	1000	1	THINK	-16	0	0	0	0	0	0
16	2023-04-18	16:31:40	16:57:21	16:57:21:437	13	3	Practice_Think	ThinkCue	0	5	0	0	0	1	5000	2	Cue38.jpg	-16	0	0	0	0	0	0
16	2023-04-18	16:31:40	16:57:22	16:57:22:176	13	4	Practice_Think	Intrusion	0	500	3000	0	4	1	722	1	How <b>often</b> did you <b>think</b> about the <b>scene</b>?   <center><br><b>NEVER (1)    BRIEFLY (2)   OFTEN (3) </b>	-16	0	0	0	0	0	0
16	2023-04-18	16:31:40	16:57:25	16:57:25:441	14	1	Practice_NoThink	fixation	0	5	1000	0	0	1	995	1	+	-16	0	0	0	0	0	0
16	2023-04-18	16:31:40	16:57:26	16:57:26:454	14	2	Practice_NoThink	NoThink	0	5	0	0	0	0	1000	1	DON'T THINK	-16	0	0	0	0	0	0
16	2023-04-18	16:31:40	16:57:31	16:57:31:471	14	3	Practice_NoThink	NoThinkCue	0	5	0	0	0	1	5000	1	Cue39.jpg	-16	0	0	0	0	0	0
16	2023-04-18	16:31:40	16:57:32	16:57:32:432	14	4	Practice_NoThink	Intrusion	0	1000	3000	0	2	1	944	1	How <b>often</b> did you <b>think</b> about the <b>scene</b>?   <center><br><b>NEVER (1)    BRIEFLY (2)   OFTEN (3) </b>	-16	0	0	0	0	0	0
16	2023-04-18	16:31:40	16:57:36	16:57:36:975	15	1	Practice_NoThink	fixation	0	5	1500	0	0	1	1495	1	+	-16	0	0	0	0	0	0
16	2023-04-18	16:31:40	16:57:37	16:57:37:988	15	2	Practice_NoThink	NoThink	0	5	0	0	0	0	1000	1	DON'T THINK	-16	0	0	0	0	0	0
16	2023-04-18	16:31:40	16:57:42	16:57:42:05	15	3	Practice_NoThink	NoThinkCue	0	5	0	0	0	1	5000	2	Cue40.jpg	-16	0	0	0	0	0	0
16	2023-04-18	16:31:40	16:57:43	16:57:43:864	15	4	Practice_NoThink	Intrusion	0	1500	3000	0	2	1	842	1	How <b>often</b> did you <b>think</b> about the <b>scene</b>?   <center><br><b>NEVER (1)    BRIEFLY (2)   OFTEN (3) </b>	-16	0	0	0	0	0	0
16	2023-04-18	16:31:40	16:58:05	16:58:05:040	1	1	countdown	instructions	0	5	0	0	57	0	2867	1	<center><br><br> <b>WATCH CALLIBRATION</b>.                <br><br><br><br>In a couple of seconds a <b>countdown</b> will start that counts down from 3 to 1,       <br><br>after which the screen will show the instruction <b>PRESS BUTTON</b>.       <br><br><b>As soon as you see that screen</b>, you must shortly press the button on your watch.       <br><br> <br><br> Press SPACE  to continue.	-4	0	0	0	0	0	0
16	2023-04-18	16:31:40	16:58:06	16:58:06:056	1	2	countdown	countdown_3	0	5	0	0	0	0	1000	1	3	-16	0	0	0	0	0	0
16	2023-04-18	16:31:40	16:58:07	16:58:07:073	1	3	countdown	countdown_2	0	5	0	0	0	0	1000	1	2	-16	0	0	0	0	0	0
16	2023-04-18	16:31:40	16:58:08	16:58:08:090	1	4	countdown	countdown_1	0	5	0	0	0	0	1000	1	1	-16	0	0	0	0	0	0
16	2023-04-18	16:31:40	16:58:09	16:58:09:106	1	5	countdown	press_button	0	5	0	0	0	0	1000	1	PRESS BUTTON NOW	-16	0	0	0	0	0	0
16	2023-04-18	16:31:40	16:59:05	16:59:05:501	2	1	TNT_Think_CSm	fixation	0	5	500	0	0	1	495	1	+	-16	0	0	0	0	0	0
16	2023-04-18	16:31:40	16:59:06	16:59:06:518	2	2	TNT_Think_CSm	Think	0	5	0	0	0	0	1000	1	THINK	-16	0	0	0	0	0	0
16	2023-04-18	16:31:40	16:59:11	16:59:11:535	2	3	TNT_Think_CSm	TNT_Think_CSm	0	5	0	0	0	0	5000	4	Cue4.jpg	-16	0	0	0	0	0	0
16	2023-04-18	16:31:40	16:59:13	16:59:13:091	2	4	TNT_Think_CSm	Intrusion	0	500	3000	0	4	1	1539	1	How <b>often</b> did you <b>think</b> about the <b>scene</b>?   <center><br><b>NEVER (1)    BRIEFLY (2)   OFTEN (3) </b>	-16	0	0	0	0	0	0
16	2023-04-18	16:31:40	16:59:15	16:59:15:539	3	1	TNT_Object_CSm	fixation	0	5	1000	0	0	1	995	1	+	-16	0	0	0	0	0	0
16	2023-04-18	16:31:40	16:59:16	16:59:16:552	3	2	TNT_Object_CSm	Passive	0	5	0	0	0	0	1000	1	VIEW	-16	0	0	0	0	0	0
16	2023-04-18	16:31:40	16:59:21	16:59:21:569	3	3	TNT_Object_CSm	TNT_Object_CSm	0	1500	0	0	0	0	5000	2	Object8.jpg	-16	0	0	0	0	0	0
16	2023-04-18	16:31:40	16:59:24	16:59:24:569	4	1	TNT_Object_CSp	fixation	0	5	1500	0	0	1	1495	1	+	-8	0	0	0	0	0	0
16	2023-04-18	16:31:40	16:59:25	16:59:25:586	4	2	TNT_Object_CSp	Passive	0	5	0	0	0	0	1000	1	VIEW	-16	0	0	0	0	0	0
16	2023-04-18	16:31:40	16:59:30	16:59:30:603	4	3	TNT_Object_CSp	TNT_Object_CSp	0	500	0	0	0	0	5000	3	Object4.jpg	-16	0	0	0	0	0	0
16	2023-04-18	16:31:40	16:59:32	16:59:32:103	5	1	TNT_NoThink_CSm	fixation	0	5	1000	0	0	1	995	1	+	-8	0	0	0	0	0	0
16	2023-04-18	16:31:40	16:59:33	16:59:33:120	5	2	TNT_NoThink_CSm	NoThink	0	5	0	0	0	0	1000	1	DON'T THINK	-16	0	0	0	0	0	0
16	2023-04-18	16:31:40	16:59:38	16:59:38:137	5	3	TNT_NoThink_CSm	TNT_NoThink_CSm	0	5	0	0	0	0	5000	5	Cue16.jpg	-16	0	0	0	0	0	0
16	2023-04-18	16:31:40	16:59:39	16:59:39:899	5	4	TNT_NoThink_CSm	Intrusion	0	1500	3000	0	3	1	745	1	How <b>often</b> did you <b>think</b> about the <b>scene</b>?   <center><br><b>NEVER (1)    BRIEFLY (2)   OFTEN (3) </b>	-16	0	0	0	0	0	0
16	2023-04-18	16:31:40	16:59:41	16:59:41:641	6	1	TNT_Think_CSp	fixation	0	5	500	0	0	1	495	1	+	-16	0	0	0	0	0	0
16	2023-04-18	16:31:40	16:59:42	16:59:42:654	6	2	TNT_Think_CSp	Think	0	5	0	0	0	0	1000	1	THINK	-16	0	0	0	0	0	0
16	2023-04-18	16:31:40	16:59:47	16:59:47:671	6	3	TNT_Think_CSp	TNT_Think_CSp	0	5	0	0	0	0	5000	4	Cue20.jpg	-16	0	0	0	0	0	0
16	2023-04-18	16:31:40	16:59:48	16:59:48:291	6	4	TNT_Think_CSp	Intrusion	0	1000	3000	0	4	1	603	1	How <b>often</b> did you <b>think</b> about the <b>scene</b>?   <center><br><b>NEVER (1)    BRIEFLY (2)   OFTEN (3) </b>	-16	0	0	0	0	0	0
16	2023-04-18	16:31:40	16:59:52	16:59:52:175	7	1	TNT_Think_CSp	fixation	0	5	1500	0	0	1	1495	1	+	-16	0	0	0	0	0	0
16	2023-04-18	16:31:40	16:59:53	16:59:53:188	7	2	TNT_Think_CSp	Think	0	5	0	0	0	0	1000	1	THINK	-16	0	0	0	0	0	0
16	2023-04-18	16:31:40	16:59:58	16:59:58:204	7	3	TNT_Think_CSp	TNT_Think_CSp	0	5	0	0	0	0	5000	5	Cue31.jpg	-16	0	0	0	0	0	0
16	2023-04-18	16:31:40	16:59:59	16:59:59:011	7	4	TNT_Think_CSp	Intrusion	0	1000	3000	0	4	1	789	1	How <b>often</b> did you <b>think</b> about the <b>scene</b>?   <center><br><b>NEVER (1)    BRIEFLY (2)   OFTEN (3) </b>	-16	0	0	0	0	0	0
16	2023-04-18	16:31:40	17:00:02	17:00:02:708	8	1	TNT_Think_CSm	fixation	0	5	1500	0	0	1	1495	1	+	-8	0	0	0	0	0	0
16	2023-04-18	16:31:40	17:00:04	17:00:04:721	8	2	TNT_Think_CSm	Think	0	5	0	0	0	0	1000	1	THINK	-16	0	0	0	0	0	0
16	2023-04-18	16:31:40	17:00:09	17:00:09:739	8	3	TNT_Think_CSm	TNT_Think_CSm	0	5	0	0	0	0	5000	1	Cue2.jpg	-16	0	0	0	0	0	0
16	2023-04-18	16:31:40	17:00:09	17:00:09:347	8	4	TNT_Think_CSm	Intrusion	0	500	3000	0	4	1	591	1	How <b>often</b> did you <b>think</b> about the <b>scene</b>?   <center><br><b>NEVER (1)    BRIEFLY (2)   OFTEN (3) </b>	-16	0	0	0	0	0	0
16	2023-04-18	16:31:40	17:00:12	17:00:12:243	9	1	TNT_Object_CSm	fixation	0	5	500	0	0	1	495	1	+	-16	0	0	0	0	0	0
16	2023-04-18	16:31:40	17:00:13	17:00:13:256	9	2	TNT_Object_CSm	Passive	0	5	0	0	0	0	1000	1	VIEW	-16	0	0	0	0	0	0
16	2023-04-18	16:31:40	17:00:18	17:00:18:273	9	3	TNT_Object_CSm	TNT_Object_CSm	0	500	0	0	0	0	5000	4	Object6.jpg	-16	0	0	0	0	0	0
16	2023-04-18	16:31:40	17:00:20	17:00:20:772	10	1	TNT_Think_CSm	fixation	0	5	1000	0	0	1	995	1	+	-8	0	0	0	0	0	0
16	2023-04-18	16:31:40	17:00:21	17:00:21:789	10	2	TNT_Think_CSm	Think	0	5	0	0	0	0	1000	1	THINK	-16	0	0	0	0	0	0
16	2023-04-18	16:31:40	17:00:26	17:00:26:806	10	3	TNT_Think_CSm	TNT_Think_CSm	0	5	0	0	0	0	5000	6	Cue17.jpg	-16	0	0	0	0	0	0
16	2023-04-18	16:31:40	17:00:26	17:00:26:467	10	4	TNT_Think_CSm	Intrusion	0	1500	3000	0	4	1	644	1	How <b>often</b> did you <b>think</b> about the <b>scene</b>?   <center><br><b>NEVER (1)    BRIEFLY (2)   OFTEN (3) </b>	-16	0	0	0	0	0	0
16	2023-04-18	16:31:40	17:00:30	17:00:30:310	11	1	TNT_Object_CSm	fixation	0	5	1500	0	0	1	1495	1	+	-16	0	0	0	0	0	0
16	2023-04-18	16:31:40	17:00:31	17:00:31:323	11	2	TNT_Object_CSm	Passive	0	5	0	0	0	0	1000	1	VIEW	-16	0	0	0	0	0	0
16	2023-04-18	16:31:40	17:00:36	17:00:36:340	11	3	TNT_Object_CSm	TNT_Object_CSm	0	1000	0	0	0	0	5000	1	Object5.jpg	-16	0	0	0	0	0	0
16	2023-04-18	16:31:40	17:00:38	17:00:38:339	12	1	TNT_NoThink_CSp	fixation	0	5	1000	0	0	1	995	1	+	-8	0	0	0	0	0	0
16	2023-04-18	16:31:40	17:00:39	17:00:39:357	12	2	TNT_NoThink_CSp	NoThink	0	5	0	0	0	0	1000	1	DON'T THINK	-16	0	0	0	0	0	0
16	2023-04-18	16:31:40	17:00:44	17:00:44:374	12	3	TNT_NoThink_CSp	TNT_NoThink_CSp	0	5	0	0	0	0	5000	5	Cue34.jpg	-16	0	0	0	0	0	0
16	2023-04-18	16:31:40	17:00:45	17:00:45:075	12	4	TNT_NoThink_CSp	Intrusion	0	500	3000	0	3	1	684	1	How <b>often</b> did you <b>think</b> about the <b>scene</b>?   <center><br><b>NEVER (1)    BRIEFLY (2)   OFTEN (3) </b>	-16	0	0	0	0	0	0
16	2023-04-18	16:31:40	17:00:48	17:00:48:878	13	1	TNT_Think_CSp	fixation	0	5	500	0	0	1	495	1	+	-16	0	0	0	0	0	0
16	2023-04-18	16:31:40	17:00:49	17:00:49:891	13	2	TNT_Think_CSp	Think	0	5	0	0	0	0	1000	1	THINK	-16	0	0	0	0	0	0
16	2023-04-18	16:31:40	17:00:54	17:00:54:908	13	3	TNT_Think_CSp	TNT_Think_CSp	0	5	0	0	0	0	5000	6	Cue24.jpg	-16	0	0	0	0	0	0
16	2023-04-18	16:31:40	17:00:55	17:00:55:787	13	4	TNT_Think_CSp	Intrusion	0	1500	3000	0	4	1	862	1	How <b>often</b> did you <b>think</b> about the <b>scene</b>?   <center><br><b>NEVER (1)    BRIEFLY (2)   OFTEN (3) </b>	-16	0	0	0	0	0	0
16	2023-04-18	16:31:40	17:00:58	17:00:58:412	14	1	TNT_NoThink_CSm	fixation	0	5	1500	0	0	1	1495	1	+	-16	0	0	0	0	0	0
16	2023-04-18	16:31:40	17:00:59	17:00:59:425	14	2	TNT_NoThink_CSm	NoThink	0	5	0	0	0	0	1000	1	DON'T THINK	-16	0	0	0	0	0	0
16	2023-04-18	16:31:40	17:01:04	17:01:04:442	14	3	TNT_NoThink_CSm	TNT_NoThink_CSm	0	5	0	0	0	0	5000	1	Cue29.jpg	-16	0	0	0	0	0	0
16	2023-04-18	16:31:40	17:01:05	17:01:05:963	14	4	TNT_NoThink_CSm	Intrusion	0	1000	3000	0	3	1	504	1	How <b>often</b> did you <b>think</b> about the <b>scene</b>?   <center><br><b>NEVER (1)    BRIEFLY (2)   OFTEN (3) </b>	-16	0	0	0	0	0	0
16	2023-04-18	16:31:40	17:01:08	17:01:08:446	15	1	TNT_NoThink_CSp	fixation	0	5	1000	0	0	1	995	1	+	-16	0	0	0	0	0	0
16	2023-04-18	16:31:40	17:01:09	17:01:09:459	15	2	TNT_NoThink_CSp	NoThink	0	5	0	0	0	0	1000	1	DON'T THINK	-16	0	0	0	0	0	0
16	2023-04-18	16:31:40	17:01:14	17:01:14:476	15	3	TNT_NoThink_CSp	TNT_NoThink_CSp	0	5	0	0	0	0	5000	1	Cue11.jpg	-16	0	0	0	0	0	0
16	2023-04-18	16:31:40	17:01:15	17:01:15:363	15	4	TNT_NoThink_CSp	Intrusion	0	500	3000	0	2	1	870	1	How <b>often</b> did you <b>think</b> about the <b>scene</b>?   <center><br><b>NEVER (1)    BRIEFLY (2)   OFTEN (3) </b>	-16	0	0	0	0	0	0
16	2023-04-18	16:31:40	17:01:18	17:01:18:980	16	1	TNT_NoThink_CSp	fixation	0	5	500	0	0	1	495	1	+	-8	0	0	0	0	0	0
16	2023-04-18	16:31:40	17:01:19	17:01:19:993	16	2	TNT_NoThink_CSp	NoThink	0	5	0	0	0	0	1000	1	DON'T THINK	-16	0	0	0	0	0	0
16	2023-04-18	16:31:40	17:01:24	17:01:24:010	16	3	TNT_NoThink_CSp	TNT_NoThink_CSp	0	5	0	0	0	0	5000	4	Cue19.jpg	-16	0	0	0	0	0	0
16	2023-04-18	16:31:40	17:01:25	17:01:25:091	16	4	TNT_NoThink_CSp	Intrusion	0	1500	3000	0	2	1	1064	1	How <b>often</b> did you <b>think</b> about the <b>scene</b>?   <center><br><b>NEVER (1)    BRIEFLY (2)   OFTEN (3) </b>	-16	0	0	0	0	0	0
16	2023-04-18	16:31:40	17:01:28	17:01:28:013	17	1	TNT_Object_CSp	fixation	0	5	1000	0	0	1	995	1	+	-16	0	0	0	0	0	0
16	2023-04-18	16:31:40	17:01:29	17:01:29:026	17	2	TNT_Object_CSp	Passive	0	5	0	0	0	0	1000	1	VIEW	-16	0	0	0	0	0	0
16	2023-04-18	16:31:40	17:01:34	17:01:34:043	17	3	TNT_Object_CSp	TNT_Object_CSp	0	1000	0	0	0	0	5000	2	Object3.jpg	-16	0	0	0	0	0	0
16	2023-04-18	16:31:40	17:01:35	17:01:35:543	18	1	TNT_Think_CSm	fixation	0	5	500	0	0	1	495	1	+	-8	0	0	0	0	0	0
16	2023-04-18	16:31:40	17:01:36	17:01:36:560	18	2	TNT_Think_CSm	Think	0	5	0	0	0	0	1000	1	THINK	-16	0	0	0	0	0	0
16	2023-04-18	16:31:40	17:01:41	17:01:41:577	18	3	TNT_Think_CSm	TNT_Think_CSm	0	5	0	0	0	0	5000	2	Cue26.jpg	-16	0	0	0	0	0	0
16	2023-04-18	16:31:40	17:01:42	17:01:42:547	18	4	TNT_Think_CSm	Intrusion	0	1000	3000	0	4	1	953	1	How <b>often</b> did you <b>think</b> about the <b>scene</b>?   <center><br><b>NEVER (1)    BRIEFLY (2)   OFTEN (3) </b>	-16	0	0	0	0	0	0
16	2023-04-18	16:31:40	17:01:46	17:01:46:081	19	1	TNT_NoThink_CSm	fixation	0	5	1500	0	0	1	1495	1	+	-16	0	0	0	0	0	0
16	2023-04-18	16:31:40	17:01:47	17:01:47:094	19	2	TNT_NoThink_CSm	NoThink	0	5	0	0	0	0	1000	1	DON'T THINK	-16	0	0	0	0	0	0
16	2023-04-18	16:31:40	17:01:52	17:01:52:111	19	3	TNT_NoThink_CSm	TNT_NoThink_CSm	0	5	0	0	0	0	5000	4	Cue32.jpg	-16	0	0	0	0	0	0
16	2023-04-18	16:31:40	17:01:53	17:01:53:075	19	4	TNT_NoThink_CSm	Intrusion	0	1500	3000	0	2	1	947	1	How <b>often</b> did you <b>think</b> about the <b>scene</b>?   <center><br><b>NEVER (1)    BRIEFLY (2)   OFTEN (3) </b>	-16	0	0	0	0	0	0
16	2023-04-18	16:31:40	17:01:55	17:01:55:615	20	1	TNT_Object_CSp	fixation	0	5	500	0	0	1	495	1	+	-16	0	0	0	0	0	0
16	2023-04-18	16:31:40	17:01:56	17:01:56:628	20	2	TNT_Object_CSp	Passive	0	5	0	0	0	0	1000	1	VIEW	-16	0	0	0	0	0	0
16	2023-04-18	16:31:40	17:02:01	17:02:01:645	20	3	TNT_Object_CSp	TNT_Object_CSp	0	1500	0	0	0	0	5000	4	Object2.jpg	-16	0	0	0	0	0	0
16	2023-04-18	16:31:40	17:02:04	17:02:04:144	21	1	TNT_Think_CSm	fixation	0	5	1000	0	0	1	995	1	+	-8	0	0	0	0	0	0
16	2023-04-18	16:31:40	17:02:05	17:02:05:162	21	2	TNT_Think_CSm	Think	0	5	0	0	0	0	1000	1	THINK	-16	0	0	0	0	0	0
16	2023-04-18	16:31:40	17:02:10	17:02:10:179	21	3	TNT_Think_CSm	TNT_Think_CSm	0	5	0	0	0	0	5000	5	Cue28.jpg	-16	0	0	0	0	0	0
16	2023-04-18	16:31:40	17:02:11	17:02:11:835	21	4	TNT_Think_CSm	Intrusion	0	500	3000	0	4	1	639	1	How <b>often</b> did you <b>think</b> about the <b>scene</b>?   <center><br><b>NEVER (1)    BRIEFLY (2)   OFTEN (3) </b>	-16	0	0	0	0	0	0
16	2023-04-18	16:31:40	17:02:14	17:02:14:683	22	1	TNT_NoThink_CSp	fixation	0	5	1500	0	0	1	1495	1	+	-16	0	0	0	0	0	0
16	2023-04-18	16:31:40	17:02:15	17:02:15:696	22	2	TNT_NoThink_CSp	NoThink	0	5	0	0	0	0	1000	1	DON'T THINK	-16	0	0	0	0	0	0
16	2023-04-18	16:31:40	17:02:21	17:02:21:712	22	3	TNT_NoThink_CSp	TNT_NoThink_CSp	0	5	0	0	0	0	5000	6	Cue27.jpg	-16	0	0	0	0	0	0
16	2023-04-18	16:31:40	17:02:21	17:02:21:347	22	4	TNT_NoThink_CSp	Intrusion	0	1000	3000	0	3	1	617	1	How <b>often</b> did you <b>think</b> about the <b>scene</b>?   <center><br><b>NEVER (1)    BRIEFLY (2)   OFTEN (3) </b>	-16	0	0	0	0	0	0
16	2023-04-18	16:31:40	17:02:25	17:02:25:716	23	1	TNT_NoThink_CSm	fixation	0	5	1000	0	0	1	995	1	+	-8	0	0	0	0	0	0
16	2023-04-18	16:31:40	17:02:26	17:02:26:730	23	2	TNT_NoThink_CSm	NoThink	0	5	0	0	0	0	1000	1	DON'T THINK	-16	0	0	0	0	0	0
16	2023-04-18	16:31:40	17:02:31	17:02:31:747	23	3	TNT_NoThink_CSm	TNT_NoThink_CSm	0	5	0	0	0	0	5000	3	Cue14.jpg	-16	0	0	0	0	0	0
16	2023-04-18	16:31:40	17:02:31	17:02:31:523	23	4	TNT_NoThink_CSm	Intrusion	0	1000	3000	0	2	1	759	1	How <b>often</b> did you <b>think</b> about the <b>scene</b>?   <center><br><b>NEVER (1)    BRIEFLY (2)   OFTEN (3) </b>	-16	0	0	0	0	0	0
16	2023-04-18	16:31:40	17:02:35	17:02:35:250	24	1	TNT_Think_CSp	fixation	0	5	1500	0	0	1	1495	1	+	-8	0	0	0	0	0	0
16	2023-04-18	16:31:40	17:02:36	17:02:36:264	24	2	TNT_Think_CSp	Think	0	5	0	0	0	0	1000	1	THINK	-16	0	0	0	0	0	0
16	2023-04-18	16:31:40	17:02:41	17:02:41:280	24	3	TNT_Think_CSp	TNT_Think_CSp	0	5	0	0	0	0	5000	3	Cue12.jpg	-16	0	0	0	0	0	0
16	2023-04-18	16:31:40	17:02:42	17:02:42:643	24	4	TNT_Think_CSp	Intrusion	0	500	3000	0	4	1	1345	1	How <b>often</b> did you <b>think</b> about the <b>scene</b>?   <center><br><b>NEVER (1)    BRIEFLY (2)   OFTEN (3) </b>	-16	0	0	0	0	0	0
16	2023-04-18	16:31:40	17:02:45	17:02:45:784	25	1	TNT_NoThink_CSp	fixation	0	5	500	0	0	1	495	1	+	-16	0	0	0	0	0	0
16	2023-04-18	16:31:40	17:02:46	17:02:46:798	25	2	TNT_NoThink_CSp	NoThink	0	5	0	0	0	0	1000	1	DON'T THINK	-16	0	0	0	0	0	0
16	2023-04-18	16:31:40	17:02:51	17:02:51:814	25	3	TNT_NoThink_CSp	TNT_NoThink_CSp	0	5	0	0	0	0	5000	3	Cue6.jpg	-16	0	0	0	0	0	0
16	2023-04-18	16:31:40	17:02:51	17:02:51:396	25	4	TNT_NoThink_CSp	Intrusion	0	1500	3000	0	3	1	564	1	How <b>often</b> did you <b>think</b> about the <b>scene</b>?   <center><br><b>NEVER (1)    BRIEFLY (2)   OFTEN (3) </b>	-16	0	0	0	0	0	0
16	2023-04-18	16:31:40	17:02:54	17:02:54:318	26	1	TNT_NoThink_CSm	fixation	0	5	500	0	0	1	495	1	+	-16	0	0	0	0	0	0
16	2023-04-18	16:31:40	17:02:55	17:02:55:332	26	2	TNT_NoThink_CSm	NoThink	0	5	0	0	0	0	1000	1	DON'T THINK	-16	0	0	0	0	0	0
16	2023-04-18	16:31:40	17:03:00	17:03:00:348	26	3	TNT_NoThink_CSm	TNT_NoThink_CSm	0	5	0	0	0	0	5000	6	Cue5.jpg	-16	0	0	0	0	0	0
16	2023-04-18	16:31:40	17:03:01	17:03:01:395	26	4	TNT_NoThink_CSm	Intrusion	0	500	3000	0	2	1	1030	1	How <b>often</b> did you <b>think</b> about the <b>scene</b>?   <center><br><b>NEVER (1)    BRIEFLY (2)   OFTEN (3) </b>	-16	0	0	0	0	0	0
16	2023-04-18	16:31:40	17:03:04	17:03:04:352	27	1	TNT_Object_CSp	fixation	0	5	1000	0	0	1	995	1	+	-16	0	0	0	0	0	0
16	2023-04-18	16:31:40	17:03:05	17:03:05:365	27	2	TNT_Object_CSp	Passive	0	5	0	0	0	0	1000	1	VIEW	-16	0	0	0	0	0	0
16	2023-04-18	16:31:40	17:03:10	17:03:10:382	27	3	TNT_Object_CSp	TNT_Object_CSp	0	1500	0	0	0	0	5000	1	Object7.jpg	-16	0	0	0	0	0	0
16	2023-04-18	16:31:40	17:03:13	17:03:13:381	28	1	TNT_Think_CSp	fixation	0	5	1500	0	0	1	1495	1	+	-8	0	0	0	0	0	0
16	2023-04-18	16:31:40	17:03:14	17:03:14:399	28	2	TNT_Think_CSp	Think	0	5	0	0	0	0	1000	1	THINK	-16	0	0	0	0	0	0
16	2023-04-18	16:31:40	17:03:19	17:03:19:416	28	3	TNT_Think_CSp	TNT_Think_CSp	0	5	0	0	0	0	5000	1	Cue35.jpg	-16	0	0	0	0	0	0
16	2023-04-18	16:31:40	17:03:20	17:03:20:387	28	4	TNT_Think_CSp	Intrusion	0	1000	3000	0	4	1	954	1	How <b>often</b> did you <b>think</b> about the <b>scene</b>?   <center><br><b>NEVER (1)    BRIEFLY (2)   OFTEN (3) </b>	-16	0	0	0	0	0	0
16	2023-04-18	16:31:40	17:03:23	17:03:23:920	29	1	TNT_Think_CSp	fixation	0	5	500	0	0	1	495	1	+	-16	0	0	0	0	0	0
16	2023-04-18	16:31:40	17:03:24	17:03:24:933	29	2	TNT_Think_CSp	Think	0	5	0	0	0	0	1000	1	THINK	-16	0	0	0	0	0	0
16	2023-04-18	16:31:40	17:03:29	17:03:29:950	29	3	TNT_Think_CSp	TNT_Think_CSp	0	5	0	0	0	0	5000	2	Cue1.jpg	-16	0	0	0	0	0	0
16	2023-04-18	16:31:40	17:03:30	17:03:30:779	29	4	TNT_Think_CSp	Intrusion	0	1500	3000	0	4	1	812	1	How <b>often</b> did you <b>think</b> about the <b>scene</b>?   <center><br><b>NEVER (1)    BRIEFLY (2)   OFTEN (3) </b>	-16	0	0	0	0	0	0
16	2023-04-18	16:31:40	17:03:33	17:03:33:954	30	1	TNT_Think_CSm	fixation	0	5	1000	0	0	1	995	1	+	-16	0	0	0	0	0	0
16	2023-04-18	16:31:40	17:03:34	17:03:34:967	30	2	TNT_Think_CSm	Think	0	5	0	0	0	0	1000	1	THINK	-16	0	0	0	0	0	0
16	2023-04-18	16:31:40	17:03:39	17:03:39:984	30	3	TNT_Think_CSm	TNT_Think_CSm	0	5	0	0	0	0	5000	3	Cue9.jpg	-16	0	0	0	0	0	0
16	2023-04-18	16:31:40	17:03:40	17:03:40:035	30	4	TNT_Think_CSm	Intrusion	0	1000	3000	0	4	1	1034	1	How <b>often</b> did you <b>think</b> about the <b>scene</b>?   <center><br><b>NEVER (1)    BRIEFLY (2)   OFTEN (3) </b>	-16	0	0	0	0	0	0
16	2023-04-18	16:31:40	17:03:43	17:03:43:488	31	1	TNT_NoThink_CSp	fixation	0	5	1500	0	0	1	1495	1	+	-16	0	0	0	0	0	0
16	2023-04-18	16:31:40	17:03:44	17:03:44:501	31	2	TNT_NoThink_CSp	NoThink	0	5	0	0	0	0	1000	1	DON'T THINK	-16	0	0	0	0	0	0
16	2023-04-18	16:31:40	17:03:49	17:03:49:518	31	3	TNT_NoThink_CSp	TNT_NoThink_CSp	0	5	0	0	0	0	5000	2	Cue30.jpg	-16	0	0	0	0	0	0
16	2023-04-18	16:31:40	17:03:50	17:03:50:451	31	4	TNT_NoThink_CSp	Intrusion	0	1500	3000	0	3	1	916	1	How <b>often</b> did you <b>think</b> about the <b>scene</b>?   <center><br><b>NEVER (1)    BRIEFLY (2)   OFTEN (3) </b>	-16	0	0	0	0	0	0
16	2023-04-18	16:31:40	17:03:53	17:03:53:022	32	1	TNT_Object_CSm	fixation	0	5	500	0	0	1	495	1	+	-16	0	0	0	0	0	0
16	2023-04-18	16:31:40	17:03:54	17:03:54:034	32	2	TNT_Object_CSm	Passive	0	5	0	0	0	0	1000	1	VIEW	-16	0	0	0	0	0	0
16	2023-04-18	16:31:40	17:03:59	17:03:59:052	32	3	TNT_Object_CSm	TNT_Object_CSm	0	1500	0	0	0	0	5000	3	Object1.jpg	-16	0	0	0	0	0	0
16	2023-04-18	16:31:40	17:04:01	17:04:01:551	33	1	TNT_NoThink_CSm	fixation	0	5	1000	0	0	1	995	1	+	-8	0	0	0	0	0	0
16	2023-04-18	16:31:40	17:04:02	17:04:02:569	33	2	TNT_NoThink_CSm	NoThink	0	5	0	0	0	0	1000	1	DON'T THINK	-16	0	0	0	0	0	0
16	2023-04-18	16:31:40	17:04:07	17:04:07:585	33	3	TNT_NoThink_CSm	TNT_NoThink_CSm	0	5	0	0	0	0	5000	2	Cue22.jpg	-16	0	0	0	0	0	0
16	2023-04-18	16:31:40	17:04:08	17:04:08:691	33	4	TNT_NoThink_CSm	Intrusion	0	500	3000	0	2	1	1088	1	How <b>often</b> did you <b>think</b> about the <b>scene</b>?   <center><br><b>NEVER (1)    BRIEFLY (2)   OFTEN (3) </b>	-16	0	0	0	0	0	0
16	2023-04-18	16:31:40	17:04:12	17:04:12:089	34	1	TNT_Object_CSm	fixation	0	5	1500	0	0	1	1495	1	+	-16	0	0	0	0	0	0
16	2023-04-18	16:31:40	17:04:13	17:04:13:102	34	2	TNT_Object_CSm	Passive	0	5	0	0	0	0	1000	1	VIEW	-16	0	0	0	0	0	0
16	2023-04-18	16:31:40	17:04:18	17:04:18:119	34	3	TNT_Object_CSm	TNT_Object_CSm	0	500	0	0	0	0	5000	2	Object8.jpg	-16	0	0	0	0	0	0
16	2023-04-18	16:31:40	17:04:20	17:04:20:119	35	1	TNT_Object_CSp	fixation	0	5	1500	0	0	1	1495	1	+	-8	0	0	0	0	0	0
16	2023-04-18	16:31:40	17:04:21	17:04:21:136	35	2	TNT_Object_CSp	Passive	0	5	0	0	0	0	1000	1	VIEW	-16	0	0	0	0	0	0
16	2023-04-18	16:31:40	17:04:26	17:04:26:153	35	3	TNT_Object_CSp	TNT_Object_CSp	0	500	0	0	0	0	5000	3	Object4.jpg	-16	0	0	0	0	0	0
16	2023-04-18	16:31:40	17:04:27	17:04:27:653	36	1	TNT_NoThink_CSm	fixation	0	5	1000	0	0	1	995	1	+	-8	0	0	0	0	0	0
16	2023-04-18	16:31:40	17:04:28	17:04:28:670	36	2	TNT_NoThink_CSm	NoThink	0	5	0	0	0	0	1000	1	DON'T THINK	-16	0	0	0	0	0	0
16	2023-04-18	16:31:40	17:04:33	17:04:33:687	36	3	TNT_NoThink_CSm	TNT_NoThink_CSm	0	5	0	0	0	0	5000	1	Cue29.jpg	-16	0	0	0	0	0	0
16	2023-04-18	16:31:40	17:04:34	17:04:34:243	36	4	TNT_NoThink_CSm	Intrusion	0	500	3000	0	2	1	539	1	How <b>often</b> did you <b>think</b> about the <b>scene</b>?   <center><br><b>NEVER (1)    BRIEFLY (2)   OFTEN (3) </b>	-16	0	0	0	0	0	0
16	2023-04-18	16:31:40	17:04:37	17:04:37:191	37	1	TNT_Think_CSm	fixation	0	5	500	0	0	1	495	1	+	-16	0	0	0	0	0	0
16	2023-04-18	16:31:40	17:04:38	17:04:38:204	37	2	TNT_Think_CSm	Think	0	5	0	0	0	0	1000	1	THINK	-16	0	0	0	0	0	0
16	2023-04-18	16:31:40	17:04:43	17:04:43:221	37	3	TNT_Think_CSm	TNT_Think_CSm	0	5	0	0	0	0	5000	4	Cue4.jpg	-16	0	0	0	0	0	0
16	2023-04-18	16:31:40	17:04:44	17:04:44:03	37	4	TNT_Think_CSm	Intrusion	0	1500	3000	0	4	1	765	1	How <b>often</b> did you <b>think</b> about the <b>scene</b>?   <center><br><b>NEVER (1)    BRIEFLY (2)   OFTEN (3) </b>	-16	0	0	0	0	0	0
16	2023-04-18	16:31:40	17:04:47	17:04:47:725	38	1	TNT_Think_CSm	fixation	0	5	500	0	0	1	495	1	+	-16	0	0	0	0	0	0
16	2023-04-18	16:31:40	17:04:48	17:04:48:738	38	2	TNT_Think_CSm	Think	0	5	0	0	0	0	1000	1	THINK	-16	0	0	0	0	0	0
16	2023-04-18	16:31:40	17:04:53	17:04:53:755	38	3	TNT_Think_CSm	TNT_Think_CSm	0	5	0	0	0	0	5000	5	Cue28.jpg	-16	0	0	0	0	0	0
16	2023-04-18	16:31:40	17:04:53	17:04:53:491	38	4	TNT_Think_CSm	Intrusion	0	1000	3000	0	4	1	719	1	How <b>often</b> did you <b>think</b> about the <b>scene</b>?   <center><br><b>NEVER (1)    BRIEFLY (2)   OFTEN (3) </b>	-16	0	0	0	0	0	0
16	2023-04-18	16:31:40	17:04:57	17:04:57:758	39	1	TNT_Object_CSp	fixation	0	5	1000	0	0	1	995	1	+	-16	0	0	0	0	0	0
16	2023-04-18	16:31:40	17:04:58	17:04:58:772	39	2	TNT_Object_CSp	Passive	0	5	0	0	0	0	1000	1	VIEW	-16	0	0	0	0	0	0
16	2023-04-18	16:31:40	17:05:03	17:05:03:788	39	3	TNT_Object_CSp	TNT_Object_CSp	0	1000	0	0	0	0	5000	4	Object2.jpg	-16	0	0	0	0	0	0
16	2023-04-18	16:31:40	17:05:05	17:05:05:288	40	1	TNT_Think_CSm	fixation	0	5	1500	0	0	1	1495	1	+	-8	0	0	0	0	0	0
16	2023-04-18	16:31:40	17:05:06	17:05:06:305	40	2	TNT_Think_CSm	Think	0	5	0	0	0	0	1000	1	THINK	-16	0	0	0	0	0	0
16	2023-04-18	16:31:40	17:05:11	17:05:11:322	40	3	TNT_Think_CSm	TNT_Think_CSm	0	5	0	0	0	0	5000	3	Cue9.jpg	-16	0	0	0	0	0	0
16	2023-04-18	16:31:40	17:05:12	17:05:12:147	40	4	TNT_Think_CSm	Intrusion	0	500	3000	0	4	1	808	1	How <b>often</b> did you <b>think</b> about the <b>scene</b>?   <center><br><b>NEVER (1)    BRIEFLY (2)   OFTEN (3) </b>	-16	0	0	0	0	0	0
16	2023-04-18	16:31:40	17:05:16	17:05:16:826	41	1	TNT_NoThink_CSp	fixation	0	5	1500	0	0	1	1495	1	+	-16	0	0	0	0	0	0
16	2023-04-18	16:31:40	17:05:17	17:05:17:839	41	2	TNT_NoThink_CSp	NoThink	0	5	0	0	0	0	1000	1	DON'T THINK	-16	0	0	0	0	0	0
16	2023-04-18	16:31:40	17:05:22	17:05:22:856	41	3	TNT_NoThink_CSp	TNT_NoThink_CSp	0	5	0	0	0	0	5000	3	Cue6.jpg	-16	0	0	0	0	0	0
16	2023-04-18	16:31:40	17:05:23	17:05:23:755	41	4	TNT_NoThink_CSp	Intrusion	0	1000	3000	0	2	1	882	1	How <b>often</b> did you <b>think</b> about the <b>scene</b>?   <center><br><b>NEVER (1)    BRIEFLY (2)   OFTEN (3) </b>	-16	0	0	0	0	0	0
16	2023-04-18	16:31:40	17:05:26	17:05:26:860	42	1	TNT_Think_CSp	fixation	0	5	1000	0	0	1	995	1	+	-8	0	0	0	0	0	0
16	2023-04-18	16:31:40	17:05:27	17:05:27:873	42	2	TNT_Think_CSp	Think	0	5	0	0	0	0	1000	1	THINK	-16	0	0	0	0	0	0
16	2023-04-18	16:31:40	17:05:32	17:05:32:890	42	3	TNT_Think_CSp	TNT_Think_CSp	0	5	0	0	0	0	5000	1	Cue35.jpg	-16	0	0	0	0	0	0
16	2023-04-18	16:31:40	17:05:32	17:05:32:371	42	4	TNT_Think_CSp	Intrusion	0	1500	3000	0	4	1	464	1	How <b>often</b> did you <b>think</b> about the <b>scene</b>?   <center><br><b>NEVER (1)    BRIEFLY (2)   OFTEN (3) </b>	-16	0	0	0	0	0	0
16	2023-04-18	16:31:40	17:05:35	17:05:35:394	43	1	TNT_NoThink_CSm	fixation	0	5	500	0	0	1	495	1	+	-16	0	0	0	0	0	0
16	2023-04-18	16:31:40	17:05:36	17:05:36:407	43	2	TNT_NoThink_CSm	NoThink	0	5	0	0	0	0	1000	1	DON'T THINK	-16	0	0	0	0	0	0
16	2023-04-18	16:31:40	17:05:41	17:05:41:424	43	3	TNT_NoThink_CSm	TNT_NoThink_CSm	0	5	0	0	0	0	5000	4	Cue32.jpg	-16	0	0	0	0	0	0
16	2023-04-18	16:31:40	17:05:42	17:05:42:195	43	4	TNT_NoThink_CSm	Intrusion	0	1000	3000	0	2	1	754	1	How <b>often</b> did you <b>think</b> about the <b>scene</b>?   <center><br><b>NEVER (1)    BRIEFLY (2)   OFTEN (3) </b>	-16	0	0	0	0	0	0
16	2023-04-18	16:31:40	17:05:46	17:05:46:928	44	1	TNT_Think_CSp	fixation	0	5	1500	0	0	1	1495	1	+	-16	0	0	0	0	0	0
16	2023-04-18	16:31:40	17:05:47	17:05:47:941	44	2	TNT_Think_CSp	Think	0	5	0	0	0	0	1000	1	THINK	-16	0	0	0	0	0	0
16	2023-04-18	16:31:40	17:05:52	17:05:52:958	44	3	TNT_Think_CSp	TNT_Think_CSp	0	5	0	0	0	0	5000	5	Cue31.jpg	-16	0	0	0	0	0	0
16	2023-04-18	16:31:40	17:05:52	17:05:52:643	44	4	TNT_Think_CSp	Intrusion	0	500	3000	0	4	1	668	1	How <b>often</b> did you <b>think</b> about the <b>scene</b>?   <center><br><b>NEVER (1)    BRIEFLY (2)   OFTEN (3) </b>	-16	0	0	0	0	0	0
16	2023-04-18	16:31:40	17:05:55	17:05:55:462	45	1	TNT_Object_CSp	fixation	0	5	500	0	0	1	495	1	+	-16	0	0	0	0	0	0
16	2023-04-18	16:31:40	17:05:56	17:05:56:475	45	2	TNT_Object_CSp	Passive	0	5	0	0	0	0	1000	1	VIEW	-16	0	0	0	0	0	0
16	2023-04-18	16:31:40	17:06:01	17:06:01:492	45	3	TNT_Object_CSp	TNT_Object_CSp	0	500	0	0	0	0	5000	1	Object7.jpg	-16	0	0	0	0	0	0
16	2023-04-18	16:31:40	17:06:03	17:06:03:991	46	1	TNT_Object_CSm	fixation	0	5	1000	0	0	1	995	1	+	-8	0	0	0	0	0	0
16	2023-04-18	16:31:40	17:06:04	17:06:04:09	46	2	TNT_Object_CSm	Passive	0	5	0	0	0	0	1000	1	VIEW	-16	0	0	0	0	0	0
16	2023-04-18	16:31:40	17:06:09	17:06:09:026	46	3	TNT_Object_CSm	TNT_Object_CSm	0	1000	0	0	0	0	5000	1	Object5.jpg	-16	0	0	0	0	0	0
16	2023-04-18	16:31:40	17:06:11	17:06:11:525	47	1	TNT_Object_CSp	fixation	0	5	1500	0	0	1	1495	1	+	-8	0	0	0	0	0	0
16	2023-04-18	16:31:40	17:06:12	17:06:12:542	47	2	TNT_Object_CSp	Passive	0	5	0	0	0	0	1000	1	VIEW	-16	0	0	0	0	0	0
16	2023-04-18	16:31:40	17:06:17	17:06:17:559	47	3	TNT_Object_CSp	TNT_Object_CSp	0	1000	0	0	0	0	5000	2	Object3.jpg	-16	0	0	0	0	0	0
16	2023-04-18	16:31:40	17:06:19	17:06:19:059	48	1	TNT_Think_CSp	fixation	0	5	500	0	0	1	495	1	+	-8	0	0	0	0	0	0
16	2023-04-18	16:31:40	17:06:20	17:06:20:076	48	2	TNT_Think_CSp	Think	0	5	0	0	0	0	1000	1	THINK	-16	0	0	0	0	0	0
16	2023-04-18	16:31:40	17:06:25	17:06:25:093	48	3	TNT_Think_CSp	TNT_Think_CSp	0	5	0	0	0	0	5000	6	Cue24.jpg	-16	0	0	0	0	0	0
16	2023-04-18	16:31:40	17:06:26	17:06:26:875	48	4	TNT_Think_CSp	Intrusion	0	1500	3000	0	4	1	765	1	How <b>often</b> did you <b>think</b> about the <b>scene</b>?   <center><br><b>NEVER (1)    BRIEFLY (2)   OFTEN (3) </b>	-16	0	0	0	0	0	0
16	2023-04-18	16:31:40	17:06:29	17:06:29:097	49	1	TNT_NoThink_CSm	fixation	0	5	1000	0	0	1	995	1	+	-16	0	0	0	0	0	0
16	2023-04-18	16:31:40	17:06:30	17:06:30:110	49	2	TNT_NoThink_CSm	NoThink	0	5	0	0	0	0	1000	1	DON'T THINK	-16	0	0	0	0	0	0
16	2023-04-18	16:31:40	17:06:35	17:06:35:127	49	3	TNT_NoThink_CSm	TNT_NoThink_CSm	0	5	0	0	0	0	5000	2	Cue22.jpg	-16	0	0	0	0	0	0
16	2023-04-18	16:31:40	17:06:36	17:06:36:083	49	4	TNT_NoThink_CSm	Intrusion	0	500	3000	0	2	1	939	1	How <b>often</b> did you <b>think</b> about the <b>scene</b>?   <center><br><b>NEVER (1)    BRIEFLY (2)   OFTEN (3) </b>	-16	0	0	0	0	0	0
16	2023-04-18	16:31:40	17:06:38	17:06:38:631	50	1	TNT_NoThink_CSp	fixation	0	5	500	0	0	1	495	1	+	-16	0	0	0	0	0	0
16	2023-04-18	16:31:40	17:06:39	17:06:39:644	50	2	TNT_NoThink_CSp	NoThink	0	5	0	0	0	0	1000	1	DON'T THINK	-16	0	0	0	0	0	0
16	2023-04-18	16:31:40	17:06:44	17:06:44:661	50	3	TNT_NoThink_CSp	TNT_NoThink_CSp	0	5	0	0	0	0	5000	6	Cue27.jpg	-16	0	0	0	0	0	0
16	2023-04-18	16:31:40	17:06:45	17:06:45:651	50	4	TNT_NoThink_CSp	Intrusion	0	1500	3000	0	3	1	973	1	How <b>often</b> did you <b>think</b> about the <b>scene</b>?   <center><br><b>NEVER (1)    BRIEFLY (2)   OFTEN (3) </b>	-16	0	0	0	0	0	0
16	2023-04-18	16:31:40	17:06:48	17:06:48:665	51	1	TNT_Object_CSm	fixation	0	5	1000	0	0	1	995	1	+	-16	0	0	0	0	0	0
16	2023-04-18	16:31:40	17:06:49	17:06:49:678	51	2	TNT_Object_CSm	Passive	0	5	0	0	0	0	1000	1	VIEW	-16	0	0	0	0	0	0
16	2023-04-18	16:31:40	17:06:54	17:06:54:694	51	3	TNT_Object_CSm	TNT_Object_CSm	0	1500	0	0	0	0	5000	4	Object6.jpg	-16	0	0	0	0	0	0
16	2023-04-18	16:31:40	17:06:57	17:06:57:694	52	1	TNT_NoThink_CSm	fixation	0	5	1500	0	0	1	1495	1	+	-8	0	0	0	0	0	0
16	2023-04-18	16:31:40	17:06:59	17:06:59:712	52	2	TNT_NoThink_CSm	NoThink	0	5	0	0	0	0	1000	1	DON'T THINK	-16	0	0	0	0	0	0
16	2023-04-18	16:31:40	17:07:04	17:07:04:729	52	3	TNT_NoThink_CSm	TNT_NoThink_CSm	0	5	0	0	0	0	5000	5	Cue16.jpg	-16	0	0	0	0	0	0
16	2023-04-18	16:31:40	17:07:04	17:07:04:579	52	4	TNT_NoThink_CSm	Intrusion	0	1000	3000	0	3	1	833	1	How <b>often</b> did you <b>think</b> about the <b>scene</b>?   <center><br><b>NEVER (1)    BRIEFLY (2)   OFTEN (3) </b>	-16	0	0	0	0	0	0
16	2023-04-18	16:31:40	17:07:08	17:07:08:733	53	1	TNT_NoThink_CSp	fixation	0	5	1000	0	0	1	995	1	+	-16	0	0	0	0	0	0
16	2023-04-18	16:31:40	17:07:09	17:07:09:746	53	2	TNT_NoThink_CSp	NoThink	0	5	0	0	0	0	1000	1	DON'T THINK	-16	0	0	0	0	0	0
16	2023-04-18	16:31:40	17:07:14	17:07:14:763	53	3	TNT_NoThink_CSp	TNT_NoThink_CSp	0	5	0	0	0	0	5000	2	Cue30.jpg	-16	0	0	0	0	0	0
16	2023-04-18	16:31:40	17:07:14	17:07:14:323	53	4	TNT_NoThink_CSp	Intrusion	0	1000	3000	0	3	1	543	1	How <b>often</b> did you <b>think</b> about the <b>scene</b>?   <center><br><b>NEVER (1)    BRIEFLY (2)   OFTEN (3) </b>	-16	0	0	0	0	0	0
16	2023-04-18	16:31:40	17:07:18	17:07:18:266	54	1	TNT_NoThink_CSp	fixation	0	5	1500	0	0	1	1495	1	+	-8	0	0	0	0	0	0
16	2023-04-18	16:31:40	17:07:19	17:07:19:280	54	2	TNT_NoThink_CSp	NoThink	0	5	0	0	0	0	1000	1	DON'T THINK	-16	0	0	0	0	0	0
16	2023-04-18	16:31:40	17:07:24	17:07:24:296	54	3	TNT_NoThink_CSp	TNT_NoThink_CSp	0	5	0	0	0	0	5000	5	Cue34.jpg	-16	0	0	0	0	0	0
16	2023-04-18	16:31:40	17:07:25	17:07:25:931	54	4	TNT_NoThink_CSp	Intrusion	0	500	3000	0	3	1	617	1	How <b>often</b> did you <b>think</b> about the <b>scene</b>?   <center><br><b>NEVER (1)    BRIEFLY (2)   OFTEN (3) </b>	-16	0	0	0	0	0	0
16	2023-04-18	16:31:40	17:07:28	17:07:28:800	55	1	TNT_Think_CSp	fixation	0	5	500	0	0	1	495	1	+	-16	0	0	0	0	0	0
16	2023-04-18	16:31:40	17:07:29	17:07:29:813	55	2	TNT_Think_CSp	Think	0	5	0	0	0	0	1000	1	THINK	-16	0	0	0	0	0	0
16	2023-04-18	16:31:40	17:07:34	17:07:34:830	55	3	TNT_Think_CSp	TNT_Think_CSp	0	5	0	0	0	0	5000	4	Cue20.jpg	-16	0	0	0	0	0	0
16	2023-04-18	16:31:40	17:07:34	17:07:34:483	55	4	TNT_Think_CSp	Intrusion	0	1500	3000	0	4	1	636	1	How <b>often</b> did you <b>think</b> about the <b>scene</b>?   <center><br><b>NEVER (1)    BRIEFLY (2)   OFTEN (3) </b>	-16	0	0	0	0	0	0
16	2023-04-18	16:31:40	17:07:37	17:07:37:334	56	1	TNT_Think_CSp	fixation	0	5	500	0	0	1	495	1	+	-16	0	0	0	0	0	0
16	2023-04-18	16:31:40	17:07:38	17:07:38:347	56	2	TNT_Think_CSp	Think	0	5	0	0	0	0	1000	1	THINK	-16	0	0	0	0	0	0
16	2023-04-18	16:31:40	17:07:43	17:07:43:364	56	3	TNT_Think_CSp	TNT_Think_CSp	0	5	0	0	0	0	5000	3	Cue12.jpg	-16	0	0	0	0	0	0
16	2023-04-18	16:31:40	17:07:44	17:07:44:891	56	4	TNT_Think_CSp	Intrusion	0	500	3000	0	4	1	510	1	How <b>often</b> did you <b>think</b> about the <b>scene</b>?   <center><br><b>NEVER (1)    BRIEFLY (2)   OFTEN (3) </b>	-16	0	0	0	0	0	0
16	2023-04-18	16:31:40	17:07:47	17:07:47:368	57	1	TNT_Think_CSm	fixation	0	5	1000	0	0	1	995	1	+	-16	0	0	0	0	0	0
16	2023-04-18	16:31:40	17:07:48	17:07:48:381	57	2	TNT_Think_CSm	Think	0	5	0	0	0	0	1000	1	THINK	-16	0	0	0	0	0	0
16	2023-04-18	16:31:40	17:07:53	17:07:53:398	57	3	TNT_Think_CSm	TNT_Think_CSm	0	5	0	0	0	0	5000	6	Cue17.jpg	-16	0	0	0	0	0	0
16	2023-04-18	16:31:40	17:07:54	17:07:54:099	57	4	TNT_Think_CSm	Intrusion	0	1500	3000	0	4	1	684	1	How <b>often</b> did you <b>think</b> about the <b>scene</b>?   <center><br><b>NEVER (1)    BRIEFLY (2)   OFTEN (3) </b>	-16	0	0	0	0	0	0
16	2023-04-18	16:31:40	17:07:58	17:07:58:902	58	1	TNT_NoThink_CSm	fixation	0	5	1500	0	0	1	1495	1	+	-16	0	0	0	0	0	0
16	2023-04-18	16:31:40	17:07:59	17:07:59:915	58	2	TNT_NoThink_CSm	NoThink	0	5	0	0	0	0	1000	1	DON'T THINK	-16	0	0	0	0	0	0
16	2023-04-18	16:31:40	17:08:04	17:08:04:932	58	3	TNT_NoThink_CSm	TNT_NoThink_CSm	0	5	0	0	0	0	5000	3	Cue14.jpg	-16	0	0	0	0	0	0
16	2023-04-18	16:31:40	17:08:05	17:08:05:787	58	4	TNT_NoThink_CSm	Intrusion	0	1000	3000	0	2	1	838	1	How <b>often</b> did you <b>think</b> about the <b>scene</b>?   <center><br><b>NEVER (1)    BRIEFLY (2)   OFTEN (3) </b>	-16	0	0	0	0	0	0
16	2023-04-18	16:31:40	17:08:08	17:08:08:935	59	1	TNT_NoThink_CSp	fixation	0	5	1000	0	0	1	995	1	+	-16	0	0	0	0	0	0
16	2023-04-18	16:31:40	17:08:09	17:08:09:949	59	2	TNT_NoThink_CSp	NoThink	0	5	0	0	0	0	1000	1	DON'T THINK	-16	0	0	0	0	0	0
16	2023-04-18	16:31:40	17:08:14	17:08:14:966	59	3	TNT_NoThink_CSp	TNT_NoThink_CSp	0	5	0	0	0	0	5000	1	Cue11.jpg	-16	0	0	0	0	0	0
16	2023-04-18	16:31:40	17:08:15	17:08:15:755	59	4	TNT_NoThink_CSp	Intrusion	0	500	3000	0	2	1	772	1	How <b>often</b> did you <b>think</b> about the <b>scene</b>?   <center><br><b>NEVER (1)    BRIEFLY (2)   OFTEN (3) </b>	-16	0	0	0	0	0	0
16	2023-04-18	16:31:40	17:08:18	17:08:18:470	60	1	TNT_NoThink_CSp	fixation	0	5	1500	0	0	1	1495	1	+	-16	0	0	0	0	0	0
16	2023-04-18	16:31:40	17:08:19	17:08:19:483	60	2	TNT_NoThink_CSp	NoThink	0	5	0	0	0	0	1000	1	DON'T THINK	-16	0	0	0	0	0	0
16	2023-04-18	16:31:40	17:08:24	17:08:24:500	60	3	TNT_NoThink_CSp	TNT_NoThink_CSp	0	5	0	0	0	0	5000	4	Cue19.jpg	-16	0	0	0	0	0	0
16	2023-04-18	16:31:40	17:08:25	17:08:25:139	60	4	TNT_NoThink_CSp	Intrusion	0	1000	3000	0	3	1	622	1	How <b>often</b> did you <b>think</b> about the <b>scene</b>?   <center><br><b>NEVER (1)    BRIEFLY (2)   OFTEN (3) </b>	-16	0	0	0	0	0	0
16	2023-04-18	16:31:40	17:08:28	17:08:28:04	61	1	TNT_Think_CSm	fixation	0	5	500	0	0	1	495	1	+	-16	0	0	0	0	0	0
16	2023-04-18	16:31:40	17:08:29	17:08:29:017	61	2	TNT_Think_CSm	Think	0	5	0	0	0	0	1000	1	THINK	-16	0	0	0	0	0	0
16	2023-04-18	16:31:40	17:08:34	17:08:34:034	61	3	TNT_Think_CSm	TNT_Think_CSm	0	5	0	0	0	0	5000	1	Cue2.jpg	-16	0	0	0	0	0	0
16	2023-04-18	16:31:40	17:08:35	17:08:35:963	61	4	TNT_Think_CSm	Intrusion	0	1500	3000	0	4	1	912	1	How <b>often</b> did you <b>think</b> about the <b>scene</b>?   <center><br><b>NEVER (1)    BRIEFLY (2)   OFTEN (3) </b>	-16	0	0	0	0	0	0
16	2023-04-18	16:31:40	17:08:38	17:08:38:038	62	1	TNT_Object_CSm	fixation	0	5	1000	0	0	1	995	1	+	-16	0	0	0	0	0	0
16	2023-04-18	16:31:40	17:08:39	17:08:39:050	62	2	TNT_Object_CSm	Passive	0	5	0	0	0	0	1000	1	VIEW	-16	0	0	0	0	0	0
16	2023-04-18	16:31:40	17:08:44	17:08:44:068	62	3	TNT_Object_CSm	TNT_Object_CSm	0	1000	0	0	0	0	5000	3	Object1.jpg	-16	0	0	0	0	0	0
16	2023-04-18	16:31:40	17:08:46	17:08:46:567	63	1	TNT_NoThink_CSm	fixation	0	5	1500	0	0	1	1495	1	+	-7	0	0	0	0	0	0
16	2023-04-18	16:31:40	17:08:47	17:08:47:585	63	2	TNT_NoThink_CSm	NoThink	0	5	0	0	0	0	1000	1	DON'T THINK	-16	0	0	0	0	0	0
16	2023-04-18	16:31:40	17:08:52	17:08:52:601	63	3	TNT_NoThink_CSm	TNT_NoThink_CSm	0	5	0	0	0	0	5000	6	Cue5.jpg	-16	0	0	0	0	0	0
16	2023-04-18	16:31:40	17:08:53	17:08:53:523	63	4	TNT_NoThink_CSm	Intrusion	0	500	3000	0	2	1	904	1	How <b>often</b> did you <b>think</b> about the <b>scene</b>?   <center><br><b>NEVER (1)    BRIEFLY (2)   OFTEN (3) </b>	-16	0	0	0	0	0	0
16	2023-04-18	16:31:40	17:08:56	17:08:56:105	64	1	TNT_Think_CSm	fixation	0	5	500	0	0	1	495	1	+	-16	0	0	0	0	0	0
16	2023-04-18	16:31:40	17:08:57	17:08:57:118	64	2	TNT_Think_CSm	Think	0	5	0	0	0	0	1000	1	THINK	-16	0	0	0	0	0	0
16	2023-04-18	16:31:40	17:09:02	17:09:02:135	64	3	TNT_Think_CSm	TNT_Think_CSm	0	5	0	0	0	0	5000	2	Cue26.jpg	-16	0	0	0	0	0	0
16	2023-04-18	16:31:40	17:09:03	17:09:03:819	64	4	TNT_Think_CSm	Intrusion	0	1500	3000	0	4	1	667	1	How <b>often</b> did you <b>think</b> about the <b>scene</b>?   <center><br><b>NEVER (1)    BRIEFLY (2)   OFTEN (3) </b>	-16	0	0	0	0	0	0
16	2023-04-18	16:31:40	17:09:05	17:09:05:638	65	1	TNT_Think_CSp	fixation	0	5	500	0	0	1	495	1	+	-16	0	0	0	0	0	0
16	2023-04-18	16:31:40	17:09:06	17:09:06:652	65	2	TNT_Think_CSp	Think	0	5	0	0	0	0	1000	1	THINK	-16	0	0	0	0	0	0
16	2023-04-18	16:31:40	17:09:11	17:09:11:669	65	3	TNT_Think_CSp	TNT_Think_CSp	0	5	0	0	0	0	5000	2	Cue1.jpg	-16	0	0	0	0	0	0
16	2023-04-18	16:31:40	17:09:12	17:09:12:499	65	4	TNT_Think_CSp	Intrusion	0	1000	3000	0	4	1	813	1	How <b>often</b> did you <b>think</b> about the <b>scene</b>?   <center><br><b>NEVER (1)    BRIEFLY (2)   OFTEN (3) </b>	-16	0	0	0	0	0	0
16	2023-04-18	16:31:40	17:09:16	17:09:16:173	66	1	Expectancy_rating	fixation	0	5	1500	0	0	1	1495	1	+	-16	0	0	0	0	0	0
16	2023-04-18	16:31:40	17:09:25	17:09:25:784	66	2	Expectancy_rating	expectancy_rating	0	1500	0	0	90	0	8592	1	When you saw the <b>object</b>,   to what <b>degree (0-100%)</b> did you expect the <b>unpleasant sound to occur</b>?	-16	23	Cue23.jpg	-16	0	0	0
16	2023-04-18	16:31:40	17:09:27	17:09:27:283	67	1	Expectancy_rating	fixation	0	5	1000	0	0	1	995	1	+	-13	0	0	0	0	0	0
16	2023-04-18	16:31:40	17:09:32	17:09:32:618	67	2	Expectancy_rating	expectancy_rating	0	500	0	0	93	0	5283	1	When you saw the <b>object</b>,   to what <b>degree (0-100%)</b> did you expect the <b>unpleasant sound to occur</b>?	-11	30	Cue30.jpg	-11	0	0	0
16	2023-04-18	16:31:40	17:09:34	17:09:34:600	68	1	Expectancy_rating	fixation	0	5	1500	0	0	1	1495	1	+	-15	0	0	0	0	0	0
16	2023-04-18	16:31:40	17:09:39	17:09:39:352	68	2	Expectancy_rating	expectancy_rating	0	1000	0	0	72	0	4726	1	When you saw the <b>object</b>,   to what <b>degree (0-100%)</b> did you expect the <b>unpleasant sound to occur</b>?	-11	39	Cue39.jpg	-11	0	0	0
16	2023-04-18	16:31:40	17:09:41	17:09:41:350	69	1	Expectancy_rating	fixation	0	5	1000	0	0	1	995	1	+	-15	0	0	0	0	0	0
16	2023-04-18	16:31:40	17:09:45	17:09:45:069	69	2	Expectancy_rating	expectancy_rating	0	500	0	0	17	0	3697	1	When you saw the <b>object</b>,   to what <b>degree (0-100%)</b> did you expect the <b>unpleasant sound to occur</b>?	-11	46	Object6.jpg	-11	0	0	0
16	2023-04-18	16:31:40	17:09:46	17:09:46:068	70	1	Expectancy_rating	fixation	0	5	500	0	0	1	495	1	+	-15	0	0	0	0	0	0
16	2023-04-18	16:31:40	17:09:49	17:09:49:569	70	2	Expectancy_rating	expectancy_rating	0	1000	0	0	94	0	3475	1	When you saw the <b>object</b>,   to what <b>degree (0-100%)</b> did you expect the <b>unpleasant sound to occur</b>?	-11	1	Cue1.jpg	-11	0	0	0
16	2023-04-18	16:31:40	17:09:51	17:09:51:568	71	1	Expectancy_rating	fixation	0	5	1000	0	0	1	995	1	+	-15	0	0	0	0	0	0
16	2023-04-18	16:31:40	17:09:56	17:09:56:820	71	2	Expectancy_rating	expectancy_rating	0	1500	0	0	93	0	4231	1	When you saw the <b>object</b>,   to what <b>degree (0-100%)</b> did you expect the <b>unpleasant sound to occur</b>?	-11	8	Cue8.jpg	-11	0	0	0
16	2023-04-18	16:31:40	17:09:59	17:09:59:819	72	1	Expectancy_rating	fixation	0	5	1500	0	0	1	1495	1	+	-15	0	0	0	0	0	0
16	2023-04-18	16:31:40	17:10:03	17:10:03:054	72	2	Expectancy_rating	expectancy_rating	0	1500	0	0	16	0	4212	1	When you saw the <b>object</b>,   to what <b>degree (0-100%)</b> did you expect the <b>unpleasant sound to occur</b>?	-11	28	Cue28.jpg	-11	0	0	0
16	2023-04-18	16:31:40	17:10:05	17:10:05:052	73	1	Expectancy_rating	fixation	0	5	500	0	0	1	495	1	+	-15	0	0	0	0	0	0
16	2023-04-18	16:31:40	17:10:09	17:10:09:021	73	2	Expectancy_rating	expectancy_rating	0	1000	0	0	94	0	3938	1	When you saw the <b>object</b>,   to what <b>degree (0-100%)</b> did you expect the <b>unpleasant sound to occur</b>?	-12	11	Cue11.jpg	-12	0	0	0
16	2023-04-18	16:31:40	17:10:11	17:10:11:019	74	1	Expectancy_rating	fixation	0	5	1000	0	0	1	995	1	+	-14	0	0	0	0	0	0
16	2023-04-18	16:31:40	17:10:15	17:10:15:521	74	2	Expectancy_rating	expectancy_rating	0	500	0	0	38	0	4475	1	When you saw the <b>object</b>,   to what <b>degree (0-100%)</b> did you expect the <b>unpleasant sound to occur</b>?	-11	26	Cue26.jpg	-11	0	0	0
16	2023-04-18	16:31:40	17:10:17	17:10:17:520	75	1	Expectancy_rating	fixation	0	5	1500	0	0	1	1495	1	+	-15	0	0	0	0	0	0
16	2023-04-18	16:31:40	17:10:20	17:10:20:304	75	2	Expectancy_rating	expectancy_rating	0	1000	0	0	16	0	2751	1	When you saw the <b>object</b>,   to what <b>degree (0-100%)</b> did you expect the <b>unpleasant sound to occur</b>?	-16	6	Cue6.jpg	-16	0	0	0
16	2023-04-18	16:31:40	17:10:22	17:10:22:804	76	1	Expectancy_rating	fixation	0	5	500	0	0	1	495	1	+	-13	0	0	0	0	0	0
16	2023-04-18	16:31:40	17:10:24	17:10:24:622	76	2	Expectancy_rating	expectancy_rating	0	1500	0	0	9	0	2795	1	When you saw the <b>object</b>,   to what <b>degree (0-100%)</b> did you expect the <b>unpleasant sound to occur</b>?	-16	22	Cue22.jpg	-16	0	0	0
16	2023-04-18	16:31:40	17:10:26	17:10:26:621	77	1	Expectancy_rating	fixation	0	5	500	0	0	1	495	1	+	-15	0	0	0	0	0	0
16	2023-04-18	16:31:40	17:10:33	17:10:33:872	77	2	Expectancy_rating	expectancy_rating	0	500	0	0	36	0	6220	1	When you saw the <b>object</b>,   to what <b>degree (0-100%)</b> did you expect the <b>unpleasant sound to occur</b>?	-16	47	Object7.jpg	-16	0	0	0
16	2023-04-18	16:31:40	17:10:34	17:10:34:371	78	1	Expectancy_rating	fixation	0	5	1000	0	0	1	995	1	+	-15	0	0	0	0	0	0
16	2023-04-18	16:31:40	17:10:39	17:10:39:856	78	2	Expectancy_rating	expectancy_rating	0	1000	0	0	16	0	4461	1	When you saw the <b>object</b>,   to what <b>degree (0-100%)</b> did you expect the <b>unpleasant sound to occur</b>?	-11	9	Cue9.jpg	-11	0	0	0
16	2023-04-18	16:31:40	17:10:41	17:10:41:355	79	1	Expectancy_rating	fixation	0	5	1500	0	0	1	1495	1	+	-15	0	0	0	0	0	0
16	2023-04-18	16:31:40	17:10:48	17:10:48:990	79	2	Expectancy_rating	expectancy_rating	0	1500	0	0	84	0	6612	1	When you saw the <b>object</b>,   to what <b>degree (0-100%)</b> did you expect the <b>unpleasant sound to occur</b>?	-12	12	Cue12.jpg	-12	0	0	0
16	2023-04-18	16:31:40	17:10:50	17:10:50:989	80	1	Expectancy_rating	fixation	0	5	500	0	0	1	495	1	+	-15	0	0	0	0	0	0
16	2023-04-18	16:31:40	17:10:53	17:10:53:057	80	2	Expectancy_rating	expectancy_rating	0	500	0	0	94	0	3035	1	When you saw the <b>object</b>,   to what <b>degree (0-100%)</b> did you expect the <b>unpleasant sound to occur</b>?	-16	34	Cue34.jpg	-16	0	0	0
16	2023-04-18	16:31:40	17:10:54	17:10:54:556	81	1	Expectancy_rating	fixation	0	5	1000	0	0	1	995	1	+	-14	0	0	0	0	0	0
16	2023-04-18	16:31:40	17:10:57	17:10:57:290	81	2	Expectancy_rating	expectancy_rating	0	1500	0	0	60	0	2708	1	When you saw the <b>object</b>,   to what <b>degree (0-100%)</b> did you expect the <b>unpleasant sound to occur</b>?	-16	31	Cue31.jpg	-16	0	0	0
16	2023-04-18	16:31:40	17:11:00	17:11:00:289	82	1	Expectancy_rating	fixation	0	5	1500	0	0	1	1495	1	+	-15	0	0	0	0	0	0
16	2023-04-18	16:31:40	17:11:04	17:11:04:424	82	2	Expectancy_rating	expectancy_rating	0	1000	0	0	10	0	4102	1	When you saw the <b>object</b>,   to what <b>degree (0-100%)</b> did you expect the <b>unpleasant sound to occur</b>?	-11	16	Cue16.jpg	-11	0	0	0
16	2023-04-18	16:31:40	17:11:06	17:11:06:423	83	1	Expectancy_rating	fixation	0	5	1000	0	0	1	995	1	+	-14	0	0	0	0	0	0
16	2023-04-18	16:31:40	17:11:10	17:11:10:091	83	2	Expectancy_rating	expectancy_rating	0	500	0	0	8	0	3640	1	When you saw the <b>object</b>,   to what <b>degree (0-100%)</b> did you expect the <b>unpleasant sound to occur</b>?	-11	18	Cue18.jpg	-11	0	0	0
16	2023-04-18	16:31:40	17:11:12	17:11:12:091	84	1	Expectancy_rating	fixation	0	5	1500	0	0	1	1495	1	+	-12	0	0	0	0	0	0
16	2023-04-18	16:31:40	17:11:15	17:11:15:674	84	2	Expectancy_rating	expectancy_rating	0	1000	0	0	6	0	3557	1	When you saw the <b>object</b>,   to what <b>degree (0-100%)</b> did you expect the <b>unpleasant sound to occur</b>?	-16	38	Cue38.jpg	-16	0	0	0
16	2023-04-18	16:31:40	17:11:17	17:11:17:172	85	1	Expectancy_rating	fixation	0	5	500	0	0	1	495	1	+	-15	0	0	0	0	0	0
16	2023-04-18	16:31:40	17:11:21	17:11:21:792	85	2	Expectancy_rating	expectancy_rating	0	1500	0	0	17	0	3595	1	When you saw the <b>object</b>,   to what <b>degree (0-100%)</b> did you expect the <b>unpleasant sound to occur</b>?	-12	37	Cue37.jpg	-12	0	0	0
16	2023-04-18	16:31:40	17:11:23	17:11:23:290	86	1	Expectancy_rating	fixation	0	5	1000	0	0	1	995	1	+	-15	0	0	0	0	0	0
16	2023-04-18	16:31:40	17:11:28	17:11:28:475	86	2	Expectancy_rating	expectancy_rating	0	500	0	0	15	0	5133	1	When you saw the <b>object</b>,   to what <b>degree (0-100%)</b> did you expect the <b>unpleasant sound to occur</b>?	-11	25	Cue25.jpg	-11	0	0	0
16	2023-04-18	16:31:40	17:11:30	17:11:30:457	87	1	Expectancy_rating	fixation	0	5	1500	0	0	1	1495	1	+	-14	0	0	0	0	0	0
16	2023-04-18	16:31:40	17:11:33	17:11:33:376	87	2	Expectancy_rating	expectancy_rating	0	500	0	0	32	0	2886	1	When you saw the <b>object</b>,   to what <b>degree (0-100%)</b> did you expect the <b>unpleasant sound to occur</b>?	-10	17	Cue17.jpg	-10	0	0	0
16	2023-04-18	16:31:40	17:11:34	17:11:34:375	88	1	Expectancy_rating	fixation	0	5	500	0	0	1	495	1	+	-15	0	0	0	0	0	0
16	2023-04-18	16:31:40	17:11:38	17:11:38:042	88	2	Expectancy_rating	expectancy_rating	0	1500	0	0	55	0	3641	1	When you saw the <b>object</b>,   to what <b>degree (0-100%)</b> did you expect the <b>unpleasant sound to occur</b>?	-16	14	Cue14.jpg	-16	0	0	0
16	2023-04-18	16:31:40	17:11:40	17:11:40:042	89	1	Expectancy_rating	fixation	0	5	500	0	0	1	495	1	+	-15	0	0	0	0	0	0
16	2023-04-18	16:31:40	17:11:43	17:11:43:792	89	2	Expectancy_rating	expectancy_rating	0	1000	0	0	39	0	2718	1	When you saw the <b>object</b>,   to what <b>degree (0-100%)</b> did you expect the <b>unpleasant sound to occur</b>?	-12	35	Cue35.jpg	-12	0	0	0
16	2023-04-18	16:31:40	17:11:45	17:11:45:291	90	1	Expectancy_rating	fixation	0	5	1500	0	0	1	1495	1	+	-15	0	0	0	0	0	0
16	2023-04-18	16:31:40	17:11:50	17:11:50:09	90	2	Expectancy_rating	expectancy_rating	0	1500	0	0	47	0	4667	1	When you saw the <b>object</b>,   to what <b>degree (0-100%)</b> did you expect the <b>unpleasant sound to occur</b>?	-11	21	Cue21.jpg	-11	0	0	0
16	2023-04-18	16:31:40	17:11:52	17:11:52:492	91	1	Expectancy_rating	fixation	0	5	1000	0	0	1	995	1	+	-15	0	0	0	0	0	0
16	2023-04-18	16:31:40	17:11:55	17:11:55:143	91	2	Expectancy_rating	expectancy_rating	0	500	0	0	28	0	2619	1	When you saw the <b>object</b>,   to what <b>degree (0-100%)</b> did you expect the <b>unpleasant sound to occur</b>?	-12	41	Object1.jpg	-12	0	0	0
16	2023-04-18	16:31:40	17:11:56	17:11:56:142	92	1	Expectancy_rating	fixation	0	5	500	0	0	1	495	1	+	-15	0	0	0	0	0	0
16	2023-04-18	16:31:40	17:11:59	17:11:59:643	92	2	Expectancy_rating	expectancy_rating	0	1000	0	0	17	0	3449	1	When you saw the <b>object</b>,   to what <b>degree (0-100%)</b> did you expect the <b>unpleasant sound to occur</b>?	-16	2	Cue2.jpg	-16	0	0	0
16	2023-04-18	16:31:40	17:12:02	17:12:02:126	93	1	Expectancy_rating	fixation	0	5	1500	0	0	1	1495	1	+	-10	0	0	0	0	0	0
16	2023-04-18	16:31:40	17:12:06	17:12:06:411	93	2	Expectancy_rating	expectancy_rating	0	1500	0	0	12	0	4257	1	When you saw the <b>object</b>,   to what <b>degree (0-100%)</b> did you expect the <b>unpleasant sound to occur</b>?	-16	32	Cue32.jpg	-16	0	0	0
16	2023-04-18	16:31:40	17:12:09	17:12:09:910	94	1	Expectancy_rating	fixation	0	5	1000	0	0	1	995	1	+	-15	0	0	0	0	0	0
16	2023-04-18	16:31:40	17:12:13	17:12:13:361	94	2	Expectancy_rating	expectancy_rating	0	1000	0	0	96	0	4425	1	When you saw the <b>object</b>,   to what <b>degree (0-100%)</b> did you expect the <b>unpleasant sound to occur</b>?	-16	42	Object2.jpg	-16	0	0	0
16	2023-04-18	16:31:40	17:12:16	17:12:16:860	95	1	Expectancy_rating	fixation	0	5	1500	0	0	1	1495	1	+	-15	0	0	0	0	0	0
16	2023-04-18	16:31:40	17:12:21	17:12:21:295	95	2	Expectancy_rating	expectancy_rating	0	500	0	0	40	0	5403	1	When you saw the <b>object</b>,   to what <b>degree (0-100%)</b> did you expect the <b>unpleasant sound to occur</b>?	-16	19	Cue19.jpg	-16	0	0	0
16	2023-04-18	16:31:40	17:12:23	17:12:23:794	96	1	Expectancy_rating	fixation	0	5	1000	0	0	1	995	1	+	-15	0	0	0	0	0	0
16	2023-04-18	16:31:40	17:12:27	17:12:27:845	96	2	Expectancy_rating	expectancy_rating	0	500	0	0	32	0	4022	1	When you saw the <b>object</b>,   to what <b>degree (0-100%)</b> did you expect the <b>unpleasant sound to occur</b>?	-16	5	Cue5.jpg	-16	0	0	0
16	2023-04-18	16:31:40	17:12:28	17:12:28:844	97	1	Expectancy_rating	fixation	0	5	500	0	0	1	495	1	+	-15	0	0	0	0	0	0
16	2023-04-18	16:31:40	17:12:34	17:12:34:429	97	2	Expectancy_rating	expectancy_rating	0	1000	0	0	39	0	6555	1	When you saw the <b>object</b>,   to what <b>degree (0-100%)</b> did you expect the <b>unpleasant sound to occur</b>?	-11	4	Cue4.jpg	-11	0	0	0
16	2023-04-18	16:31:40	17:12:36	17:12:36:428	98	1	Expectancy_rating	fixation	0	5	1000	0	0	1	995	1	+	-15	0	0	0	0	0	0
16	2023-04-18	16:31:40	17:12:40	17:12:40:196	98	2	Expectancy_rating	expectancy_rating	0	1500	0	0	5	0	3747	1	When you saw the <b>object</b>,   to what <b>degree (0-100%)</b> did you expect the <b>unpleasant sound to occur</b>?	-11	29	Cue29.jpg	-11	0	0	0
16	2023-04-18	16:31:40	17:12:42	17:12:42:195	99	1	Expectancy_rating	fixation	0	5	500	0	0	1	495	1	+	-15	0	0	0	0	0	0
16	2023-04-18	16:31:40	17:12:46	17:12:46:196	99	2	Expectancy_rating	expectancy_rating	0	1500	0	0	38	0	3972	1	When you saw the <b>object</b>,   to what <b>degree (0-100%)</b> did you expect the <b>unpleasant sound to occur</b>?	-16	43	Object3.jpg	-16	0	0	0
16	2023-04-18	16:31:40	17:12:49	17:12:49:194	100	1	Expectancy_rating	fixation	0	5	1500	0	0	1	1495	1	+	-15	0	0	0	0	0	0
16	2023-04-18	16:31:40	17:12:54	17:12:54:614	100	2	Expectancy_rating	expectancy_rating	0	1000	0	0	81	0	5396	1	When you saw the <b>object</b>,   to what <b>degree (0-100%)</b> did you expect the <b>unpleasant sound to occur</b>?	-10	24	Cue24.jpg	-10	0	0	0
16	2023-04-18	16:31:40	17:12:56	17:12:56:113	101	1	Expectancy_rating	fixation	0	5	500	0	0	1	495	1	+	-15	0	0	0	0	0	0
16	2023-04-18	16:31:40	17:12:59	17:12:59:497	101	2	Expectancy_rating	expectancy_rating	0	500	0	0	77	0	3359	1	When you saw the <b>object</b>,   to what <b>degree (0-100%)</b> did you expect the <b>unpleasant sound to occur</b>?	-16	3	Cue3.jpg	-16	0	0	0
16	2023-04-18	16:31:40	17:13:01	17:13:01:496	102	1	Expectancy_rating	fixation	0	5	1500	0	0	1	1495	1	+	-15	0	0	0	0	0	0
16	2023-04-18	16:31:40	17:13:06	17:13:06:447	102	2	Expectancy_rating	expectancy_rating	0	1500	0	0	18	0	4927	1	When you saw the <b>object</b>,   to what <b>degree (0-100%)</b> did you expect the <b>unpleasant sound to occur</b>?	-12	15	Cue15.jpg	-12	0	0	0
16	2023-04-18	16:31:40	17:13:09	17:13:09:946	103	1	Expectancy_rating	fixation	0	5	1000	0	0	1	995	1	+	-15	0	0	0	0	0	0
16	2023-04-18	16:31:40	17:13:15	17:13:15:065	103	2	Expectancy_rating	expectancy_rating	0	1000	0	0	17	0	6093	1	When you saw the <b>object</b>,   to what <b>degree (0-100%)</b> did you expect the <b>unpleasant sound to occur</b>?	-12	48	Object8.jpg	-12	0	0	0
16	2023-04-18	16:31:40	17:13:17	17:13:17:063	104	1	Expectancy_rating	fixation	0	5	1000	0	0	1	995	1	+	-15	0	0	0	0	0	0
16	2023-04-18	16:31:40	17:13:20	17:13:20:949	104	2	Expectancy_rating	expectancy_rating	0	500	0	0	93	0	2855	1	When you saw the <b>object</b>,   to what <b>degree (0-100%)</b> did you expect the <b>unpleasant sound to occur</b>?	-12	20	Cue20.jpg	-12	0	0	0
16	2023-04-18	16:31:40	17:13:22	17:13:22:948	105	1	Expectancy_rating	fixation	0	5	1500	0	0	1	1495	1	+	-14	0	0	0	0	0	0
16	2023-04-18	16:31:40	17:13:24	17:13:24:632	105	2	Expectancy_rating	expectancy_rating	0	1500	0	0	7	0	2660	1	When you saw the <b>object</b>,   to what <b>degree (0-100%)</b> did you expect the <b>unpleasant sound to occur</b>?	-16	10	Cue10.jpg	-16	0	0	0
16	2023-04-18	16:31:40	17:13:26	17:13:26:631	106	1	Expectancy_rating	fixation	0	5	500	0	0	1	495	1	+	-15	0	0	0	0	0	0
16	2023-04-18	16:31:40	17:13:30	17:13:30:649	106	2	Expectancy_rating	expectancy_rating	0	500	0	0	40	0	3984	1	When you saw the <b>object</b>,   to what <b>degree (0-100%)</b> did you expect the <b>unpleasant sound to occur</b>?	-16	13	Cue13.jpg	-16	0	0	0
16	2023-04-18	16:31:40	17:13:31	17:13:31:648	107	1	Expectancy_rating	fixation	0	5	500	0	0	1	495	1	+	-15	0	0	0	0	0	0
16	2023-04-18	16:31:40	17:13:35	17:13:35:115	107	2	Expectancy_rating	expectancy_rating	0	1000	0	0	88	0	3415	1	When you saw the <b>object</b>,   to what <b>degree (0-100%)</b> did you expect the <b>unpleasant sound to occur</b>?	-11	7	Cue7.jpg	-11	0	0	0
16	2023-04-18	16:31:40	17:13:37	17:13:37:098	108	1	Expectancy_rating	fixation	0	5	1000	0	0	1	995	1	+	-15	0	0	0	0	0	0
16	2023-04-18	16:31:40	17:13:40	17:13:40:366	108	2	Expectancy_rating	expectancy_rating	0	1500	0	0	12	0	3245	1	When you saw the <b>object</b>,   to what <b>degree (0-100%)</b> did you expect the <b>unpleasant sound to occur</b>?	-16	36	Cue36.jpg	-16	0	0	0
16	2023-04-18	16:31:40	17:13:43	17:13:43:366	109	1	Expectancy_rating	fixation	0	5	1500	0	0	1	1495	1	+	-9	0	0	0	0	0	0
16	2023-04-18	16:31:40	17:13:46	17:13:46:033	109	2	Expectancy_rating	expectancy_rating	0	1000	0	0	27	0	2642	1	When you saw the <b>object</b>,   to what <b>degree (0-100%)</b> did you expect the <b>unpleasant sound to occur</b>?	-16	44	Object4.jpg	-16	0	0	0
16	2023-04-18	16:31:40	17:13:48	17:13:48:532	110	1	Expectancy_rating	fixation	0	5	1500	0	0	1	1495	1	+	-15	0	0	0	0	0	0
16	2023-04-18	16:31:40	17:13:54	17:13:54:266	110	2	Expectancy_rating	expectancy_rating	0	500	0	0	7	0	5683	1	When you saw the <b>object</b>,   to what <b>degree (0-100%)</b> did you expect the <b>unpleasant sound to occur</b>?	-12	33	Cue33.jpg	-12	0	0	0
16	2023-04-18	16:31:40	17:13:56	17:13:56:749	111	1	Expectancy_rating	fixation	0	5	1000	0	0	1	995	1	+	-15	0	0	0	0	0	0
16	2023-04-18	16:31:40	17:14:00	17:14:00:250	111	2	Expectancy_rating	expectancy_rating	0	1000	0	0	93	0	4451	1	When you saw the <b>object</b>,   to what <b>degree (0-100%)</b> did you expect the <b>unpleasant sound to occur</b>?	-12	40	Cue40.jpg	-12	0	0	0
16	2023-04-18	16:31:40	17:14:02	17:14:02:733	112	1	Expectancy_rating	fixation	0	5	500	0	0	1	495	1	+	-15	0	0	0	0	0	0
16	2023-04-18	16:31:40	17:14:04	17:14:04:084	112	2	Expectancy_rating	expectancy_rating	0	1500	0	0	84	0	2322	1	When you saw the <b>object</b>,   to what <b>degree (0-100%)</b> did you expect the <b>unpleasant sound to occur</b>?	-11	27	Cue27.jpg	-11	0	0	0
16	2023-04-18	16:31:40	17:14:07	17:14:07:083	113	1	Expectancy_rating	fixation	0	5	1500	0	0	1	1495	1	+	-15	0	0	0	0	0	0
16	2023-04-18	16:31:40	17:14:11	17:14:11:451	113	2	Expectancy_rating	expectancy_rating	0	500	0	0	15	0	4340	1	When you saw the <b>object</b>,   to what <b>degree (0-100%)</b> did you expect the <b>unpleasant sound to occur</b>?	-16	45	Object5.jpg	-16	0	0	0
16	2023-04-18	16:31:40	17:14:25	17:14:25:817	114	1	countdown	instructions	0	5	0	0	57	0	12833	1	<center><br><br> <b>WATCH CALLIBRATION</b>.                <br><br><br><br>In a couple of seconds a <b>countdown</b> will start that counts down from 3 to 1,       <br><br>after which the screen will show the instruction <b>PRESS BUTTON</b>.       <br><br><b>As soon as you see that screen</b>, you must shortly press the button on your watch.       <br><br> <br><br> Press SPACE  to continue.	-14	0	0	0	0	0	0
16	2023-04-18	16:31:40	17:14:26	17:14:26:835	114	2	countdown	countdown_3	0	5	0	0	0	0	1000	1	3	-15	0	0	0	0	0	0
16	2023-04-18	16:31:40	17:14:27	17:14:27:852	114	3	countdown	countdown_2	0	5	0	0	0	0	1000	1	2	-16	0	0	0	0	0	0
16	2023-04-18	16:31:40	17:14:28	17:14:28:868	114	4	countdown	countdown_1	0	5	0	0	0	0	1000	1	1	-16	0	0	0	0	0	0
16	2023-04-18	16:31:40	17:14:29	17:14:29:885	114	5	countdown	press_button	0	5	0	0	0	0	1000	1	PRESS BUTTON NOW	-16	0	0	0	0	0	0
16	2023-04-18	16:31:40	17:14:44	17:14:44:921	115	1	continue_TNT	continue_TNT	0	5	0	0	0	0	15000	1	<center> <br><br><br> We will now continue with the next block of the attention task.   <br><br><br><center>Keep your fingers balanced on the <b>1, 2 and 3 </b>on the keyboard throughout the task   <br><br>to give the rating how well you were <b>able to think</b> or <b>not think</b> (1 = NEVER, 2 = BRIEFLY, 3 = OFTEN).	-14	0	0	0	0	0	0
16	2023-04-18	16:31:40	17:14:44	17:14:44:422	116	1	TNT_NoThink_CSm	fixation	0	5	500	0	0	1	495	1	+	-8	0	0	0	0	0	0
16	2023-04-18	16:31:40	17:14:45	17:14:45:438	116	2	TNT_NoThink_CSm	NoThink	0	5	0	0	0	0	1000	1	DON'T THINK	-16	0	0	0	0	0	0
16	2023-04-18	16:31:40	17:14:50	17:14:50:455	116	3	TNT_NoThink_CSm	TNT_NoThink_CSm	0	5	0	0	0	0	5000	4	Cue32.jpg	-16	0	0	0	0	0	0
16	2023-04-18	16:31:40	17:14:51	17:14:51:587	116	4	TNT_NoThink_CSm	Intrusion	0	500	3000	0	2	1	1115	1	How <b>often</b> did you <b>think</b> about the <b>scene</b>?   <center><br><b>NEVER (1)    BRIEFLY (2)   OFTEN (3) </b>	-16	0	0	0	0	0	0
16	2023-04-18	16:31:40	17:14:54	17:14:54:459	117	1	TNT_Object_CSp	fixation	0	5	1000	0	0	1	995	1	+	-16	0	0	0	0	0	0
16	2023-04-18	16:31:40	17:14:55	17:14:55:472	117	2	TNT_Object_CSp	Passive	0	5	0	0	0	0	1000	1	VIEW	-16	0	0	0	0	0	0
16	2023-04-18	16:31:40	17:15:00	17:15:00:489	117	3	TNT_Object_CSp	TNT_Object_CSp	0	1500	0	0	0	0	5000	4	Object2.jpg	-16	0	0	0	0	0	0
16	2023-04-18	16:31:40	17:15:02	17:15:02:489	118	1	TNT_Think_CSm	fixation	0	5	500	0	0	1	495	1	+	-7	0	0	0	0	0	0
16	2023-04-18	16:31:40	17:15:03	17:15:03:506	118	2	TNT_Think_CSm	Think	0	5	0	0	0	0	1000	1	THINK	-16	0	0	0	0	0	0
16	2023-04-18	16:31:40	17:15:08	17:15:08:523	118	3	TNT_Think_CSm	TNT_Think_CSm	0	5	0	0	0	0	5000	1	Cue2.jpg	-16	0	0	0	0	0	0
16	2023-04-18	16:31:40	17:15:09	17:15:09:475	118	4	TNT_Think_CSm	Intrusion	0	1500	3000	0	4	1	935	1	How <b>often</b> did you <b>think</b> about the <b>scene</b>?   <center><br><b>NEVER (1)    BRIEFLY (2)   OFTEN (3) </b>	-16	0	0	0	0	0	0
16	2023-04-18	16:31:40	17:15:12	17:15:12:527	119	1	TNT_Object_CSm	fixation	0	5	1000	0	0	1	995	1	+	-16	0	0	0	0	0	0
16	2023-04-18	16:31:40	17:15:13	17:15:13:540	119	2	TNT_Object_CSm	Passive	0	5	0	0	0	0	1000	1	VIEW	-16	0	0	0	0	0	0
16	2023-04-18	16:31:40	17:15:18	17:15:18:557	119	3	TNT_Object_CSm	TNT_Object_CSm	0	500	0	0	0	0	5000	2	Object8.jpg	-16	0	0	0	0	0	0
16	2023-04-18	16:31:40	17:15:20	17:15:20:556	120	1	TNT_NoThink_CSm	fixation	0	5	1500	0	0	1	1495	1	+	-8	0	0	0	0	0	0
16	2023-04-18	16:31:40	17:15:21	17:15:21:574	120	2	TNT_NoThink_CSm	NoThink	0	5	0	0	0	0	1000	1	DON'T THINK	-16	0	0	0	0	0	0
16	2023-04-18	16:31:40	17:15:26	17:15:26:590	120	3	TNT_NoThink_CSm	TNT_NoThink_CSm	0	5	0	0	0	0	5000	3	Cue14.jpg	-16	0	0	0	0	0	0
16	2023-04-18	16:31:40	17:15:27	17:15:27:027	120	4	TNT_NoThink_CSm	Intrusion	0	1000	3000	0	4	1	420	1	How <b>often</b> did you <b>think</b> about the <b>scene</b>?   <center><br><b>NEVER (1)    BRIEFLY (2)   OFTEN (3) </b>	-16	0	0	0	0	0	0
16	2023-04-18	16:31:40	17:15:30	17:15:30:594	121	1	TNT_NoThink_CSp	fixation	0	5	1000	0	0	1	995	1	+	-16	0	0	0	0	0	0
16	2023-04-18	16:31:40	17:15:31	17:15:31:608	121	2	TNT_NoThink_CSp	NoThink	0	5	0	0	0	0	1000	1	DON'T THINK	-16	0	0	0	0	0	0
16	2023-04-18	16:31:40	17:15:36	17:15:36:624	121	3	TNT_NoThink_CSp	TNT_NoThink_CSp	0	5	0	0	0	0	5000	6	Cue27.jpg	-16	0	0	0	0	0	0
16	2023-04-18	16:31:40	17:15:37	17:15:37:315	121	4	TNT_NoThink_CSp	Intrusion	0	1500	3000	0	2	1	674	1	How <b>often</b> did you <b>think</b> about the <b>scene</b>?   <center><br><b>NEVER (1)    BRIEFLY (2)   OFTEN (3) </b>	-16	0	0	0	0	0	0
16	2023-04-18	16:31:40	17:15:41	17:15:41:128	122	1	TNT_NoThink_CSp	fixation	0	5	1500	0	0	1	1495	1	+	-16	0	0	0	0	0	0
16	2023-04-18	16:31:40	17:15:42	17:15:42:142	122	2	TNT_NoThink_CSp	NoThink	0	5	0	0	0	0	1000	1	DON'T THINK	-16	0	0	0	0	0	0
16	2023-04-18	16:31:40	17:15:47	17:15:47:158	122	3	TNT_NoThink_CSp	TNT_NoThink_CSp	0	5	0	0	0	0	5000	4	Cue19.jpg	-16	0	0	0	0	0	0
16	2023-04-18	16:31:40	17:15:48	17:15:48:611	122	4	TNT_NoThink_CSp	Intrusion	0	1000	3000	0	2	1	1436	1	How <b>often</b> did you <b>think</b> about the <b>scene</b>?   <center><br><b>NEVER (1)    BRIEFLY (2)   OFTEN (3) </b>	-16	0	0	0	0	0	0
16	2023-04-18	16:31:40	17:15:50	17:15:50:662	123	1	TNT_NoThink_CSm	fixation	0	5	500	0	0	1	495	1	+	-16	0	0	0	0	0	0
16	2023-04-18	16:31:40	17:15:51	17:15:51:676	123	2	TNT_NoThink_CSm	NoThink	0	5	0	0	0	0	1000	1	DON'T THINK	-16	0	0	0	0	0	0
16	2023-04-18	16:31:40	17:15:57	17:15:57:692	123	3	TNT_NoThink_CSm	TNT_NoThink_CSm	0	5	0	0	0	0	5000	1	Cue29.jpg	-16	0	0	0	0	0	0
16	2023-04-18	16:31:40	17:15:58	17:15:58:859	123	4	TNT_NoThink_CSm	Intrusion	0	500	3000	0	2	1	1150	1	How <b>often</b> did you <b>think</b> about the <b>scene</b>?   <center><br><b>NEVER (1)    BRIEFLY (2)   OFTEN (3) </b>	-16	0	0	0	0	0	0
16	2023-04-18	16:31:40	17:16:01	17:16:01:695	124	1	TNT_Think_CSm	fixation	0	5	1000	0	0	1	995	1	+	-16	0	0	0	0	0	0
16	2023-04-18	16:31:40	17:16:02	17:16:02:709	124	2	TNT_Think_CSm	Think	0	5	0	0	0	0	1000	1	THINK	-16	0	0	0	0	0	0
16	2023-04-18	16:31:40	17:16:07	17:16:07:726	124	3	TNT_Think_CSm	TNT_Think_CSm	0	5	0	0	0	0	5000	2	Cue26.jpg	-16	0	0	0	0	0	0
16	2023-04-18	16:31:40	17:16:08	17:16:08:234	124	4	TNT_Think_CSm	Intrusion	0	1500	3000	0	0	0	1500	1	How <b>often</b> did you <b>think</b> about the <b>scene</b>?   <center><br><b>NEVER (1)    BRIEFLY (2)   OFTEN (3) </b>	-16	0	0	0	0	0	0
16	2023-04-18	16:31:40	17:16:10	17:16:10:230	125	1	TNT_Think_CSm	fixation	0	5	500	0	0	1	495	1	+	-16	0	0	0	0	0	0
16	2023-04-18	16:31:40	17:16:11	17:16:11:243	125	2	TNT_Think_CSm	Think	0	5	0	0	0	0	1000	1	THINK	-16	0	0	0	0	0	0
16	2023-04-18	16:31:40	17:16:16	17:16:16:260	125	3	TNT_Think_CSm	TNT_Think_CSm	0	5	0	0	0	0	5000	4	Cue4.jpg	-16	0	0	0	0	0	0
