subject	date	time	currenttime	currenttime_plus_ms	blocknum	trialnum	blockcode	trialcode	pretrialpause	posttrialpause	trialduration	trialtimeout	response	correct	latency	stimulusnumber1	stimulusitem1	stimulusonset1	stimulusnumber2	stimulusitem2	stimulusonset2	stimulusnumber3	stimulusitem3	stimulusonset3
10	2023-04-05	15:33:43	15:34:36	15:34:36:052	2	1	Reminder_Baseline_CSp	fixation	0	5	1000	0	0	1	995	1	+	-16	0	0	0	0	0	0
10	2023-04-05	15:33:43	15:34:41	15:34:41:085	2	2	Reminder_Baseline_CSp	Baseline_CSp	0	5	0	0	0	0	5000	1	+	-16	3	Cue23.jpg	-16	3	Target23.jpg	-16
10	2023-04-05	15:33:43	15:34:50	15:34:50:866	2	3	Reminder_Baseline_CSp	valence	0	5	0	0	35	0	9680	1	I found these images to be...	-2	0	0	0	0	0	0
10	2023-04-05	15:33:43	15:34:58	15:34:58:300	2	4	Reminder_Baseline_CSp	expectancy	0	1500	0	0	91	0	7328	1	When you saw the <b>object-scene</b>,   to what <b>degree (0-100%)</b> did you expect the <b>unpleasant sound to occur</b>?	-6	0	0	0	0	0	0
10	2023-04-05	15:33:43	15:35:01	15:35:01:287	3	1	Reminder_Baseline_CSp	fixation	0	5	1500	0	0	1	1495	1	+	-9	0	0	0	0	0	0
10	2023-04-05	15:33:43	15:35:06	15:35:06:303	3	2	Reminder_Baseline_CSp	Baseline_CSp	0	5	0	0	0	0	5000	1	+	-16	4	Cue11.jpg	-16	4	Target11.jpg	-16
10	2023-04-05	15:33:43	15:35:09	15:35:09:967	3	3	Reminder_Baseline_CSp	valence	0	5	0	0	50	0	3616	1	I found these images to be...	-16	0	0	0	0	0	0
10	2023-04-05	15:33:43	15:35:14	15:35:14:152	3	4	Reminder_Baseline_CSp	expectancy	0	500	0	0	94	0	4140	1	When you saw the <b>object-scene</b>,   to what <b>degree (0-100%)</b> did you expect the <b>unpleasant sound to occur</b>?	-8	0	0	0	0	0	0
10	2023-04-05	15:33:43	15:35:15	15:35:15:151	4	1	Reminder_Think_CSp	fixation	0	5	500	0	0	1	495	1	+	-12	0	0	0	0	0	0
10	2023-04-05	15:33:43	15:35:20	15:35:20:171	4	2	Reminder_Think_CSp	Think_CSp	0	5	0	0	0	0	5000	1	+	-16	1	Cue19.jpg	-16	1	Target19.jpg	-16
10	2023-04-05	15:33:43	15:35:25	15:35:25:218	4	3	Reminder_Think_CSp	valence	0	5	0	0	20	0	4996	1	I found these images to be...	-16	0	0	0	0	0	0
10	2023-04-05	15:33:43	15:35:28	15:35:28:486	4	4	Reminder_Think_CSp	expectancy	0	1000	0	0	82	0	3225	1	When you saw the <b>object-scene</b>,   to what <b>degree (0-100%)</b> did you expect the <b>unpleasant sound to occur</b>?	-8	0	0	0	0	0	0
10	2023-04-05	15:33:43	15:35:30	15:35:30:485	5	1	Reminder_Think_CSp	fixation	0	5	1000	0	0	1	995	1	+	-15	0	0	0	0	0	0
10	2023-04-05	15:33:43	15:35:35	15:35:35:502	5	2	Reminder_Think_CSp	Think_CSp	0	5	0	0	0	0	5000	1	+	-13	3	Cue13.jpg	-13	3	Target13.jpg	-13
10	2023-04-05	15:33:43	15:35:37	15:35:37:020	5	3	Reminder_Think_CSp	valence	0	5	0	0	50	0	1486	1	I found these images to be...	-16	0	0	0	0	0	0
10	2023-04-05	15:33:43	15:35:41	15:35:41:653	5	4	Reminder_Think_CSp	expectancy	0	500	0	0	64	0	4592	1	When you saw the <b>object-scene</b>,   to what <b>degree (0-100%)</b> did you expect the <b>unpleasant sound to occur</b>?	-12	0	0	0	0	0	0
10	2023-04-05	15:33:43	15:35:42	15:35:42:652	6	1	PracticeItems_NoThink	fixation	0	5	500	0	0	1	495	1	+	-15	0	0	0	0	0	0
10	2023-04-05	15:33:43	15:35:47	15:35:47:670	6	2	PracticeItems_NoThink	PracticeItems_NoThink	0	5	0	0	0	0	5000	1	+	-16	1	Cue39.jpg	-16	1	Target39.jpg	-16
10	2023-04-05	15:33:43	15:35:50	15:35:50:320	6	3	PracticeItems_NoThink	valence	0	5	0	0	22	0	2631	1	I found these images to be...	-16	0	0	0	0	0	0
10	2023-04-05	15:33:43	15:35:52	15:35:52:404	6	4	PracticeItems_NoThink	expectancy	0	1500	0	0	50	0	2044	1	When you saw the <b>object-scene</b>,   to what <b>degree (0-100%)</b> did you expect the <b>unpleasant sound to occur</b>?	-10	0	0	0	0	0	0
10	2023-04-05	15:33:43	15:35:55	15:35:55:403	7	1	Reminder_NoThink_CSm	fixation	0	5	1500	0	0	1	1495	1	+	-15	0	0	0	0	0	0
10	2023-04-05	15:33:43	15:36:00	15:36:00:421	7	2	Reminder_NoThink_CSm	NoThink_CSm	0	5	0	0	0	0	5000	1	+	-16	6	Cue8.jpg	-16	6	Target8.jpg	-16
10	2023-04-05	15:33:43	15:36:06	15:36:06:138	7	3	Reminder_NoThink_CSm	valence	0	5	0	0	30	0	5663	1	I found these images to be...	-16	0	0	0	0	0	0
10	2023-04-05	15:33:43	15:36:09	15:36:09:888	7	4	Reminder_NoThink_CSm	expectancy	0	1000	0	0	17	0	3706	1	When you saw the <b>object-scene</b>,   to what <b>degree (0-100%)</b> did you expect the <b>unpleasant sound to occur</b>?	-10	0	0	0	0	0	0
10	2023-04-05	15:33:43	15:36:11	15:36:11:889	8	1	PracticeItems_Think	fixation	0	5	1000	0	0	1	995	1	+	-9	0	0	0	0	0	0
10	2023-04-05	15:33:43	15:36:16	15:36:16:908	8	2	PracticeItems_Think	PracticeItems_Think	0	5	0	0	0	0	5000	1	+	-16	2	Cue38.jpg	-16	2	Target38.jpg	-16
10	2023-04-05	15:33:43	15:36:19	15:36:19:622	8	3	PracticeItems_Think	valence	0	5	0	0	22	0	2668	1	I found these images to be...	-16	0	0	0	0	0	0
10	2023-04-05	15:33:43	15:36:25	15:36:25:089	8	4	PracticeItems_Think	expectancy	0	1000	0	0	65	0	5413	1	When you saw the <b>object-scene</b>,   to what <b>degree (0-100%)</b> did you expect the <b>unpleasant sound to occur</b>?	-7	0	0	0	0	0	0
10	2023-04-05	15:33:43	15:36:26	15:36:26:588	9	1	Reminder_Baseline_CSm	fixation	0	5	500	0	0	1	495	1	+	-14	0	0	0	0	0	0
10	2023-04-05	15:33:43	15:36:31	15:36:31:606	9	2	Reminder_Baseline_CSm	Baseline_CSm	0	5	0	0	0	0	5000	1	+	-14	5	Cue1.jpg	-14	5	Target1.jpg	-14
10	2023-04-05	15:33:43	15:36:35	15:36:35:623	9	3	Reminder_Baseline_CSm	valence	0	5	0	0	29	0	3999	1	I found these images to be...	-16	0	0	0	0	0	0
10	2023-04-05	15:33:43	15:36:38	15:36:38:623	9	4	Reminder_Baseline_CSm	expectancy	0	1500	0	0	9	0	2957	1	When you saw the <b>object-scene</b>,   to what <b>degree (0-100%)</b> did you expect the <b>unpleasant sound to occur</b>?	-12	0	0	0	0	0	0
10	2023-04-05	15:33:43	15:36:41	15:36:41:622	10	1	Reminder_Baseline_CSm	fixation	0	5	1500	0	0	1	1495	1	+	-15	0	0	0	0	0	0
10	2023-04-05	15:33:43	15:36:46	15:36:46:640	10	2	Reminder_Baseline_CSm	Baseline_CSm	0	5	0	0	0	0	5000	1	+	-16	4	Cue33.jpg	-16	4	Target33.jpg	-16
10	2023-04-05	15:33:43	15:36:49	15:36:49:874	10	3	Reminder_Baseline_CSm	valence	0	5	0	0	39	0	3204	1	I found these images to be...	-16	0	0	0	0	0	0
10	2023-04-05	15:33:43	15:36:52	15:36:52:941	10	4	Reminder_Baseline_CSm	expectancy	0	500	0	0	10	0	3026	1	When you saw the <b>object-scene</b>,   to what <b>degree (0-100%)</b> did you expect the <b>unpleasant sound to occur</b>?	-12	0	0	0	0	0	0
10	2023-04-05	15:33:43	15:36:54	15:36:54:940	11	1	Reminder_Objects_CSp	fixation	0	5	1500	0	0	1	1495	1	+	-15	0	0	0	0	0	0
10	2023-04-05	15:33:43	15:36:59	15:36:59:957	11	2	Reminder_Objects_CSp	Objects_CSp	0	5	0	0	0	0	5000	2	Object5.jpg	-14	0	0	0	0	0	0
10	2023-04-05	15:33:43	15:37:04	15:37:04:625	11	3	Reminder_Objects_CSp	expectancy_object	0	1000	0	0	100	0	4639	1	When you saw the <b>object</b>,   to what <b>degree (0-100%)</b> did you expect the <b>unpleasant sound to occur</b>?	-16	0	0	0	0	0	0
10	2023-04-05	15:33:43	15:37:06	15:37:06:626	12	1	Reminder_Objects_CSm	fixation	0	5	1000	0	0	1	995	1	+	-10	0	0	0	0	0	0
10	2023-04-05	15:33:43	15:37:11	15:37:11:643	12	2	Reminder_Objects_CSm	Objects_CSm	0	5	0	0	0	0	5000	4	Object7.jpg	-16	0	0	0	0	0	0
10	2023-04-05	15:33:43	15:37:14	15:37:14:442	12	3	Reminder_Objects_CSm	expectancy_object	0	500	0	0	55	0	2770	1	When you saw the <b>object</b>,   to what <b>degree (0-100%)</b> did you expect the <b>unpleasant sound to occur</b>?	-16	0	0	0	0	0	0
10	2023-04-05	15:33:43	15:37:15	15:37:15:445	13	1	Reminder_NoThink_CSp	fixation	0	5	500	0	0	1	495	1	+	-8	0	0	0	0	0	0
10	2023-04-05	15:33:43	15:37:20	15:37:20:461	13	2	Reminder_NoThink_CSp	NoThink_CSp	0	5	0	0	0	0	5000	1	+	-16	6	Cue16.jpg	-16	6	Target16.jpg	-16
10	2023-04-05	15:33:43	15:37:23	15:37:23:092	13	3	Reminder_NoThink_CSp	valence	0	5	0	0	50	0	2602	1	I found these images to be...	-16	0	0	0	0	0	0
10	2023-04-05	15:33:43	15:37:26	15:37:26:559	13	4	Reminder_NoThink_CSp	expectancy	0	500	0	0	68	0	3399	1	When you saw the <b>object-scene</b>,   to what <b>degree (0-100%)</b> did you expect the <b>unpleasant sound to occur</b>?	0	0	0	0	0	0	0
10	2023-04-05	15:33:43	15:37:28	15:37:28:046	14	1	Reminder_Baseline_CSp	fixation	0	5	1000	0	0	1	995	1	+	-3	0	0	0	0	0	0
10	2023-04-05	15:33:43	15:37:33	15:37:33:062	14	2	Reminder_Baseline_CSp	Baseline_CSp	0	5	0	0	0	0	5000	1	+	-16	5	Cue35.jpg	-16	5	Target35.jpg	-16
10	2023-04-05	15:33:43	15:37:35	15:37:35:176	14	3	Reminder_Baseline_CSp	valence	0	5	0	0	22	0	2065	1	I found these images to be...	-16	0	0	0	0	0	0
10	2023-04-05	15:33:43	15:37:39	15:37:39:028	14	4	Reminder_Baseline_CSp	expectancy	0	1500	0	0	94	0	3811	1	When you saw the <b>object-scene</b>,   to what <b>degree (0-100%)</b> did you expect the <b>unpleasant sound to occur</b>?	-8	0	0	0	0	0	0
10	2023-04-05	15:33:43	15:37:42	15:37:42:026	15	1	Reminder_Baseline_CSm	fixation	0	5	1500	0	0	1	1495	1	+	-15	0	0	0	0	0	0
10	2023-04-05	15:33:43	15:37:47	15:37:47:043	15	2	Reminder_Baseline_CSm	Baseline_CSm	0	5	0	0	0	0	5000	1	+	-16	6	Cue21.jpg	-16	6	Target21.jpg	-16
10	2023-04-05	15:33:43	15:37:50	15:37:50:661	15	3	Reminder_Baseline_CSm	valence	0	5	0	0	42	0	3592	1	I found these images to be...	-16	0	0	0	0	0	0
10	2023-04-05	15:33:43	15:37:55	15:37:55:261	15	4	Reminder_Baseline_CSm	expectancy	0	1000	0	0	61	0	4558	1	When you saw the <b>object-scene</b>,   to what <b>degree (0-100%)</b> did you expect the <b>unpleasant sound to occur</b>?	-12	0	0	0	0	0	0
10	2023-04-05	15:33:43	15:37:56	15:37:56:762	16	1	Reminder_Think_CSp	fixation	0	5	500	0	0	1	495	1	+	-15	0	0	0	0	0	0
10	2023-04-05	15:33:43	15:38:01	15:38:01:781	16	2	Reminder_Think_CSp	Think_CSp	0	5	0	0	0	0	5000	1	+	-16	5	Cue3.jpg	-16	5	Target3.jpg	-16
10	2023-04-05	15:33:43	15:38:02	15:38:02:978	16	3	Reminder_Think_CSp	valence	0	5	0	0	46	0	1147	1	I found these images to be...	-16	0	0	0	0	0	0
10	2023-04-05	15:33:43	15:38:06	15:38:06:895	16	4	Reminder_Think_CSp	expectancy	0	1500	0	0	88	0	3865	1	When you saw the <b>object-scene</b>,   to what <b>degree (0-100%)</b> did you expect the <b>unpleasant sound to occur</b>?	-7	0	0	0	0	0	0
10	2023-04-05	15:33:43	15:38:09	15:38:09:894	17	1	Reminder_NoThink_CSm	fixation	0	5	1500	0	0	1	1495	1	+	-15	0	0	0	0	0	0
10	2023-04-05	15:33:43	15:38:14	15:38:14:912	17	2	Reminder_NoThink_CSm	NoThink_CSm	0	5	0	0	0	0	5000	1	+	-14	5	Cue14.jpg	-14	5	Target14.jpg	-14
10	2023-04-05	15:33:43	15:38:17	15:38:17:045	17	3	Reminder_NoThink_CSm	valence	0	5	0	0	40	0	2083	1	I found these images to be...	-16	0	0	0	0	0	0
10	2023-04-05	15:33:43	15:38:18	15:38:18:963	17	4	Reminder_NoThink_CSm	expectancy	0	500	0	0	50	0	1878	1	When you saw the <b>object-scene</b>,   to what <b>degree (0-100%)</b> did you expect the <b>unpleasant sound to occur</b>?	-12	0	0	0	0	0	0
10	2023-04-05	15:33:43	15:38:20	15:38:20:461	18	1	Reminder_Objects_CSm	fixation	0	5	1000	0	0	1	995	1	+	-15	0	0	0	0	0	0
10	2023-04-05	15:33:43	15:38:25	15:38:25:479	18	2	Reminder_Objects_CSm	Objects_CSm	0	5	0	0	0	0	5000	2	Object1.jpg	-14	0	0	0	0	0	0
10	2023-04-05	15:33:43	15:38:31	15:38:31:029	18	3	Reminder_Objects_CSm	expectancy_object	0	1500	0	0	40	0	5501	1	When you saw the <b>object</b>,   to what <b>degree (0-100%)</b> did you expect the <b>unpleasant sound to occur</b>?	-16	0	0	0	0	0	0
10	2023-04-05	15:33:43	15:38:33	15:38:33:012	19	1	Reminder_Objects_CSm	fixation	0	5	500	0	0	1	495	1	+	-15	0	0	0	0	0	0
10	2023-04-05	15:33:43	15:38:38	15:38:38:030	19	2	Reminder_Objects_CSm	Objects_CSm	0	5	0	0	0	0	5000	3	Object4.jpg	-16	0	0	0	0	0	0
10	2023-04-05	15:33:43	15:38:40	15:38:40:781	19	3	Reminder_Objects_CSm	expectancy_object	0	500	0	0	18	0	2718	1	When you saw the <b>object</b>,   to what <b>degree (0-100%)</b> did you expect the <b>unpleasant sound to occur</b>?	-10	0	0	0	0	0	0
10	2023-04-05	15:33:43	15:38:41	15:38:41:779	20	1	Reminder_Think_CSp	fixation	0	5	500	0	0	1	495	1	+	-15	0	0	0	0	0	0
10	2023-04-05	15:33:43	15:38:46	15:38:46:797	20	2	Reminder_Think_CSp	Think_CSp	0	5	0	0	0	0	5000	1	+	-12	6	Cue36.jpg	-12	6	Target36.jpg	-12
10	2023-04-05	15:33:43	15:38:51	15:38:51:431	20	3	Reminder_Think_CSp	valence	0	5	0	0	40	0	4607	1	I found these images to be...	-16	0	0	0	0	0	0
10	2023-04-05	15:33:43	15:38:54	15:38:54:814	20	4	Reminder_Think_CSp	expectancy	0	1000	0	0	66	0	3317	1	When you saw the <b>object-scene</b>,   to what <b>degree (0-100%)</b> did you expect the <b>unpleasant sound to occur</b>?	0	0	0	0	0	0	0
10	2023-04-05	15:33:43	15:38:56	15:38:56:799	21	1	Reminder_Baseline_CSp	fixation	0	5	1000	0	0	1	995	1	+	-10	0	0	0	0	0	0
10	2023-04-05	15:33:43	15:39:01	15:39:01:816	21	2	Reminder_Baseline_CSp	Baseline_CSp	0	5	0	0	0	0	5000	1	+	-16	1	Cue10.jpg	-16	1	Target10.jpg	-16
10	2023-04-05	15:33:43	15:39:06	15:39:06:032	21	3	Reminder_Baseline_CSp	valence	0	5	0	0	30	0	4190	1	I found these images to be...	-16	0	0	0	0	0	0
10	2023-04-05	15:33:43	15:39:09	15:39:09:348	21	4	Reminder_Baseline_CSp	expectancy	0	1000	0	0	75	0	3243	1	When you saw the <b>object-scene</b>,   to what <b>degree (0-100%)</b> did you expect the <b>unpleasant sound to occur</b>?	0	0	0	0	0	0	0
10	2023-04-05	15:33:43	15:39:11	15:39:11:833	22	1	Reminder_Objects_CSp	fixation	0	5	1500	0	0	1	1495	1	+	-9	0	0	0	0	0	0
10	2023-04-05	15:33:43	15:39:16	15:39:16:850	22	2	Reminder_Objects_CSp	Objects_CSp	0	5	0	0	0	0	5000	3	Object6.jpg	-16	0	0	0	0	0	0
10	2023-04-05	15:33:43	15:39:20	15:39:20:233	22	3	Reminder_Objects_CSp	expectancy_object	0	1500	0	0	89	0	3355	1	When you saw the <b>object</b>,   to what <b>degree (0-100%)</b> did you expect the <b>unpleasant sound to occur</b>?	-16	0	0	0	0	0	0
10	2023-04-05	15:33:43	15:39:22	15:39:22:234	23	1	Reminder_Think_CSm	fixation	0	5	500	0	0	1	495	1	+	-10	0	0	0	0	0	0
10	2023-04-05	15:33:43	15:39:27	15:39:27:252	23	2	Reminder_Think_CSm	Think_CSm	0	5	0	0	0	0	5000	1	+	-16	3	Cue18.jpg	-16	3	Target18.jpg	-16
10	2023-04-05	15:33:43	15:39:33	15:39:33:517	23	3	Reminder_Think_CSm	valence	0	5	0	0	27	0	6234	1	I found these images to be...	-16	0	0	0	0	0	0
10	2023-04-05	15:33:43	15:39:37	15:39:37:700	23	4	Reminder_Think_CSm	expectancy	0	500	0	0	36	0	4142	1	When you saw the <b>object-scene</b>,   to what <b>degree (0-100%)</b> did you expect the <b>unpleasant sound to occur</b>?	0	0	0	0	0	0	0
10	2023-04-05	15:33:43	15:39:39	15:39:39:701	24	1	Reminder_NoThink_CSp	fixation	0	5	1500	0	0	1	1495	1	+	-9	0	0	0	0	0	0
10	2023-04-05	15:33:43	15:39:44	15:39:44:719	24	2	Reminder_NoThink_CSp	NoThink_CSp	0	5	0	0	0	0	5000	1	+	-16	1	Cue6.jpg	-16	1	Target6.jpg	-16
10	2023-04-05	15:33:43	15:39:47	15:39:47:934	24	3	Reminder_NoThink_CSp	valence	0	5	0	0	50	0	3166	1	I found these images to be...	-16	0	0	0	0	0	0
10	2023-04-05	15:33:43	15:39:52	15:39:52:167	24	4	Reminder_NoThink_CSp	expectancy	0	1500	0	0	80	0	4164	1	When you saw the <b>object-scene</b>,   to what <b>degree (0-100%)</b> did you expect the <b>unpleasant sound to occur</b>?	-9	0	0	0	0	0	0
10	2023-04-05	15:33:43	15:39:54	15:39:54:650	25	1	Reminder_Objects_CSp	fixation	0	5	1000	0	0	1	995	1	+	-10	0	0	0	0	0	0
10	2023-04-05	15:33:43	15:39:59	15:39:59:669	25	2	Reminder_Objects_CSp	Objects_CSp	0	5	0	0	0	0	5000	4	Object2.jpg	-9	0	0	0	0	0	0
10	2023-04-05	15:33:43	15:40:05	15:40:05:069	25	3	Reminder_Objects_CSp	expectancy_object	0	1000	0	0	42	0	5376	1	When you saw the <b>object</b>,   to what <b>degree (0-100%)</b> did you expect the <b>unpleasant sound to occur</b>?	-16	0	0	0	0	0	0
10	2023-04-05	15:33:43	15:40:07	15:40:07:070	26	1	Reminder_Baseline_CSm	fixation	0	5	1000	0	0	1	995	1	+	-10	0	0	0	0	0	0
10	2023-04-05	15:33:43	15:40:12	15:40:12:087	26	2	Reminder_Baseline_CSm	Baseline_CSm	0	5	0	0	0	0	5000	1	+	-16	2	Cue20.jpg	-16	2	Target20.jpg	-16
10	2023-04-05	15:33:43	15:40:16	15:40:16:352	26	3	Reminder_Baseline_CSm	valence	0	5	0	0	43	0	4238	1	I found these images to be...	-16	0	0	0	0	0	0
10	2023-04-05	15:33:43	15:40:23	15:40:23:970	26	4	Reminder_Baseline_CSm	expectancy	0	500	0	0	10	0	7570	1	When you saw the <b>object-scene</b>,   to what <b>degree (0-100%)</b> did you expect the <b>unpleasant sound to occur</b>?	0	0	0	0	0	0	0
10	2023-04-05	15:33:43	15:40:25	15:40:25:973	27	1	Reminder_Baseline_CSp	fixation	0	5	1500	0	0	1	1495	1	+	-8	0	0	0	0	0	0
10	2023-04-05	15:33:43	15:40:30	15:40:30:989	27	2	Reminder_Baseline_CSp	Baseline_CSp	0	5	0	0	0	0	5000	1	+	-16	2	Cue34.jpg	-16	2	Target34.jpg	-16
10	2023-04-05	15:33:43	15:40:35	15:40:35:354	27	3	Reminder_Baseline_CSp	valence	0	5	0	0	30	0	4314	1	I found these images to be...	-16	0	0	0	0	0	0
10	2023-04-05	15:33:43	15:40:37	15:40:37:954	27	4	Reminder_Baseline_CSp	expectancy	0	1000	0	0	90	0	2553	1	When you saw the <b>object-scene</b>,   to what <b>degree (0-100%)</b> did you expect the <b>unpleasant sound to occur</b>?	-8	0	0	0	0	0	0
10	2023-04-05	15:33:43	15:40:39	15:40:39:453	28	1	PracticeItems_NoThink	fixation	0	5	500	0	0	1	495	1	+	-15	0	0	0	0	0	0
10	2023-04-05	15:33:43	15:40:44	15:40:44:471	28	2	PracticeItems_NoThink	PracticeItems_NoThink	0	5	0	0	0	0	5000	1	+	-16	2	Cue40.jpg	-16	2	Target40.jpg	-16
10	2023-04-05	15:33:43	15:40:47	15:40:47:238	28	3	PracticeItems_NoThink	valence	0	5	0	0	44	0	2748	1	I found these images to be...	-16	0	0	0	0	0	0
10	2023-04-05	15:33:43	15:40:51	15:40:51:172	28	4	PracticeItems_NoThink	expectancy	0	1500	0	0	80	0	3885	1	When you saw the <b>object-scene</b>,   to what <b>degree (0-100%)</b> did you expect the <b>unpleasant sound to occur</b>?	-12	0	0	0	0	0	0
10	2023-04-05	15:33:43	15:40:54	15:40:54:171	29	1	Reminder_Objects_CSm	fixation	0	5	1500	0	0	1	1495	1	+	-15	0	0	0	0	0	0
10	2023-04-05	15:33:43	15:40:59	15:40:59:188	29	2	Reminder_Objects_CSm	Objects_CSm	0	5	0	0	0	0	5000	1	Object8.jpg	-16	0	0	0	0	0	0
10	2023-04-05	15:33:43	15:41:02	15:41:02:639	29	3	Reminder_Objects_CSm	expectancy_object	0	1000	0	0	10	0	3431	1	When you saw the <b>object</b>,   to what <b>degree (0-100%)</b> did you expect the <b>unpleasant sound to occur</b>?	-16	0	0	0	0	0	0
10	2023-04-05	15:33:43	15:41:04	15:41:04:637	30	1	Reminder_NoThink_CSm	fixation	0	5	1000	0	0	1	995	1	+	-15	0	0	0	0	0	0
10	2023-04-05	15:33:43	15:41:09	15:41:09:656	30	2	Reminder_NoThink_CSm	NoThink_CSm	0	5	0	0	0	0	5000	1	+	-12	3	Cue24.jpg	-12	3	Target24.jpg	-12
10	2023-04-05	15:33:43	15:41:10	15:41:10:890	30	3	Reminder_NoThink_CSm	valence	0	5	0	0	50	0	1203	1	I found these images to be...	-16	0	0	0	0	0	0
10	2023-04-05	15:33:43	15:41:18	15:41:18:973	30	4	Reminder_NoThink_CSm	expectancy	0	500	0	0	56	0	8041	1	When you saw the <b>object-scene</b>,   to what <b>degree (0-100%)</b> did you expect the <b>unpleasant sound to occur</b>?	0	0	0	0	0	0	0
10	2023-04-05	15:33:43	15:41:19	15:41:19:976	31	1	Reminder_NoThink_CSm	fixation	0	5	500	0	0	1	495	1	+	-8	0	0	0	0	0	0
10	2023-04-05	15:33:43	15:41:24	15:41:24:993	31	2	Reminder_NoThink_CSm	NoThink_CSm	0	5	0	0	0	0	5000	1	+	-16	2	Cue22.jpg	-16	2	Target22.jpg	-16
10	2023-04-05	15:33:43	15:41:26	15:41:26:190	31	3	Reminder_NoThink_CSm	valence	0	5	0	0	50	0	1150	1	I found these images to be...	-16	0	0	0	0	0	0
10	2023-04-05	15:33:43	15:41:28	15:41:28:723	31	4	Reminder_NoThink_CSm	expectancy	0	1500	0	0	30	0	2485	1	When you saw the <b>object-scene</b>,   to what <b>degree (0-100%)</b> did you expect the <b>unpleasant sound to occur</b>?	-8	0	0	0	0	0	0
10	2023-04-05	15:33:43	15:41:31	15:41:31:722	32	1	Reminder_Baseline_CSm	fixation	0	5	1500	0	0	1	1495	1	+	-15	0	0	0	0	0	0
10	2023-04-05	15:33:43	15:41:36	15:41:36:741	32	2	Reminder_Baseline_CSm	Baseline_CSm	0	5	0	0	0	0	5000	1	+	-14	3	Cue17.jpg	-14	3	Target17.jpg	-14
10	2023-04-05	15:33:43	15:41:41	15:41:41:141	32	3	Reminder_Baseline_CSm	valence	0	5	0	0	30	0	4367	1	I found these images to be...	-16	0	0	0	0	0	0
10	2023-04-05	15:33:43	15:41:45	15:41:45:809	32	4	Reminder_Baseline_CSm	expectancy	0	1000	0	0	20	0	4630	1	When you saw the <b>object-scene</b>,   to what <b>degree (0-100%)</b> did you expect the <b>unpleasant sound to occur</b>?	-10	0	0	0	0	0	0
10	2023-04-05	15:33:43	15:41:47	15:41:47:808	33	1	Reminder_Think_CSm	fixation	0	5	1000	0	0	1	995	1	+	-15	0	0	0	0	0	0
10	2023-04-05	15:33:43	15:41:52	15:41:52:825	33	2	Reminder_Think_CSm	Think_CSm	0	5	0	0	0	0	5000	1	+	-16	5	Cue26.jpg	-16	5	Target26.jpg	-16
10	2023-04-05	15:33:43	15:41:54	15:41:54:775	33	3	Reminder_Think_CSm	valence	0	5	0	0	43	0	1931	1	I found these images to be...	-16	0	0	0	0	0	0
10	2023-04-05	15:33:43	15:42:00	15:42:00:759	33	4	Reminder_Think_CSm	expectancy	0	1000	0	0	30	0	5916	1	When you saw the <b>object-scene</b>,   to what <b>degree (0-100%)</b> did you expect the <b>unpleasant sound to occur</b>?	-12	0	0	0	0	0	0
10	2023-04-05	15:33:43	15:42:02	15:42:02:242	34	1	Reminder_Think_CSm	fixation	0	5	500	0	0	1	495	1	+	-13	0	0	0	0	0	0
10	2023-04-05	15:33:43	15:42:07	15:42:07:262	34	2	Reminder_Think_CSm	Think_CSm	0	5	0	0	0	0	5000	1	+	-16	2	Cue25.jpg	-16	2	Target25.jpg	-16
10	2023-04-05	15:33:43	15:42:13	15:42:13:476	34	3	Reminder_Think_CSm	valence	0	5	0	0	36	0	6160	1	I found these images to be...	-16	0	0	0	0	0	0
10	2023-04-05	15:33:43	15:42:20	15:42:20:560	34	4	Reminder_Think_CSm	expectancy	0	1500	0	0	62	0	7014	1	When you saw the <b>object-scene</b>,   to what <b>degree (0-100%)</b> did you expect the <b>unpleasant sound to occur</b>?	-8	0	0	0	0	0	0
10	2023-04-05	15:33:43	15:42:23	15:42:23:547	35	1	Reminder_Objects_CSp	fixation	0	5	1500	0	0	1	1495	1	+	-9	0	0	0	0	0	0
10	2023-04-05	15:33:43	15:42:28	15:42:28:562	35	2	Reminder_Objects_CSp	Objects_CSp	0	5	0	0	0	0	5000	1	Object3.jpg	-16	0	0	0	0	0	0
10	2023-04-05	15:33:43	15:42:30	15:42:30:594	35	3	Reminder_Objects_CSp	expectancy_object	0	500	0	0	95	0	1979	1	When you saw the <b>object</b>,   to what <b>degree (0-100%)</b> did you expect the <b>unpleasant sound to occur</b>?	-16	0	0	0	0	0	0
10	2023-04-05	15:33:43	15:42:32	15:42:32:080	36	1	Reminder_NoThink_CSm	fixation	0	5	1000	0	0	1	995	1	+	-2	0	0	0	0	0	0
10	2023-04-05	15:33:43	15:42:37	15:42:37:097	36	2	Reminder_NoThink_CSm	NoThink_CSm	0	5	0	0	0	0	5000	1	+	-16	1	Cue7.jpg	-16	1	Target7.jpg	-16
10	2023-04-05	15:33:43	15:42:43	15:42:43:162	36	3	Reminder_NoThink_CSm	valence	0	5	0	0	35	0	6037	1	I found these images to be...	-16	0	0	0	0	0	0
10	2023-04-05	15:33:43	15:42:48	15:42:48:962	36	4	Reminder_NoThink_CSm	expectancy	0	500	0	0	30	0	5753	1	When you saw the <b>object-scene</b>,   to what <b>degree (0-100%)</b> did you expect the <b>unpleasant sound to occur</b>?	0	0	0	0	0	0	0
10	2023-04-05	15:33:43	15:42:49	15:42:49:961	37	1	Reminder_NoThink_CSm	fixation	0	5	500	0	0	1	495	1	+	-15	0	0	0	0	0	0
10	2023-04-05	15:33:43	15:42:54	15:42:54:981	37	2	Reminder_NoThink_CSm	NoThink_CSm	0	5	0	0	0	0	5000	1	+	-13	4	Cue15.jpg	-13	4	Target15.jpg	-13
10	2023-04-05	15:33:43	15:43:00	15:43:00:812	37	3	Reminder_NoThink_CSm	valence	0	5	0	0	45	0	5777	1	I found these images to be...	-16	0	0	0	0	0	0
10	2023-04-05	15:33:43	15:43:02	15:43:02:846	37	4	Reminder_NoThink_CSm	expectancy	0	1500	0	0	50	0	1974	1	When you saw the <b>object-scene</b>,   to what <b>degree (0-100%)</b> did you expect the <b>unpleasant sound to occur</b>?	-9	0	0	0	0	0	0
10	2023-04-05	15:33:43	15:43:04	15:43:04:849	38	1	Reminder_Baseline_CSm	fixation	0	5	500	0	0	1	495	1	+	-8	0	0	0	0	0	0
10	2023-04-05	15:33:43	15:43:09	15:43:09:866	38	2	Reminder_Baseline_CSm	Baseline_CSm	0	5	0	0	0	0	5000	1	+	-16	1	Cue9.jpg	-16	1	Target9.jpg	-16
10	2023-04-05	15:33:43	15:43:12	15:43:12:930	38	3	Reminder_Baseline_CSm	valence	0	5	0	0	17	0	3012	1	I found these images to be...	-16	0	0	0	0	0	0
10	2023-04-05	15:33:43	15:43:20	15:43:20:197	38	4	Reminder_Baseline_CSm	expectancy	0	500	0	0	80	0	7218	1	When you saw the <b>object-scene</b>,   to what <b>degree (0-100%)</b> did you expect the <b>unpleasant sound to occur</b>?	-7	0	0	0	0	0	0
10	2023-04-05	15:33:43	15:43:22	15:43:22:196	39	1	PracticeItems_Think	fixation	0	5	1500	0	0	1	1495	1	+	-15	0	0	0	0	0	0
10	2023-04-05	15:33:43	15:43:27	15:43:27:214	39	2	PracticeItems_Think	PracticeItems_Think	0	5	0	0	0	0	5000	1	+	-16	1	Cue37.jpg	-16	1	Target37.jpg	-16
10	2023-04-05	15:33:43	15:43:32	15:43:32:248	39	3	PracticeItems_Think	valence	0	5	0	0	44	0	5014	1	I found these images to be...	-16	0	0	0	0	0	0
10	2023-04-05	15:33:43	15:43:39	15:43:39:499	39	4	PracticeItems_Think	expectancy	0	1000	0	0	60	0	7203	1	When you saw the <b>object-scene</b>,   to what <b>degree (0-100%)</b> did you expect the <b>unpleasant sound to occur</b>?	-12	0	0	0	0	0	0
10	2023-04-05	15:33:43	15:43:41	15:43:41:498	40	1	Reminder_Think_CSp	fixation	0	5	1000	0	0	1	995	1	+	-15	0	0	0	0	0	0
10	2023-04-05	15:33:43	15:43:46	15:43:46:518	40	2	Reminder_Think_CSp	Think_CSp	0	5	0	0	0	0	5000	1	+	-14	4	Cue12.jpg	-14	4	Target12.jpg	-14
10	2023-04-05	15:33:43	15:43:53	15:43:53:666	40	3	Reminder_Think_CSp	valence	0	5	0	0	41	0	7120	1	I found these images to be...	-16	0	0	0	0	0	0
10	2023-04-05	15:33:43	15:44:00	15:44:00:850	40	4	Reminder_Think_CSp	expectancy	0	1000	0	0	74	0	7137	1	When you saw the <b>object-scene</b>,   to what <b>degree (0-100%)</b> did you expect the <b>unpleasant sound to occur</b>?	0	0	0	0	0	0	0
10	2023-04-05	15:33:43	15:44:02	15:44:02:353	41	1	Reminder_Baseline_CSp	fixation	0	5	500	0	0	1	495	1	+	-9	0	0	0	0	0	0
10	2023-04-05	15:33:43	15:44:07	15:44:07:369	41	2	Reminder_Baseline_CSp	Baseline_CSp	0	5	0	0	0	0	5000	1	+	-16	6	Cue30.jpg	-16	6	Target30.jpg	-16
10	2023-04-05	15:33:43	15:44:10	15:44:10:483	41	3	Reminder_Baseline_CSp	valence	0	5	0	0	36	0	3061	1	I found these images to be...	-16	0	0	0	0	0	0
10	2023-04-05	15:33:43	15:44:13	15:44:13:334	41	4	Reminder_Baseline_CSp	expectancy	0	500	0	0	90	0	2808	1	When you saw the <b>object-scene</b>,   to what <b>degree (0-100%)</b> did you expect the <b>unpleasant sound to occur</b>?	-8	0	0	0	0	0	0
10	2023-04-05	15:33:43	15:44:15	15:44:15:336	42	1	Reminder_NoThink_CSp	fixation	0	5	1500	0	0	1	1495	1	+	-9	0	0	0	0	0	0
10	2023-04-05	15:33:43	15:44:20	15:44:20:353	42	2	Reminder_NoThink_CSp	NoThink_CSp	0	5	0	0	0	0	5000	1	+	-16	5	Cue29.jpg	-16	5	Target29.jpg	-16
10	2023-04-05	15:33:43	15:44:21	15:44:21:384	42	3	Reminder_NoThink_CSp	valence	0	5	0	0	50	0	1005	1	I found these images to be...	-16	0	0	0	0	0	0
10	2023-04-05	15:33:43	15:44:26	15:44:26:501	42	4	Reminder_NoThink_CSp	expectancy	0	1500	0	0	60	0	5075	1	When you saw the <b>object-scene</b>,   to what <b>degree (0-100%)</b> did you expect the <b>unpleasant sound to occur</b>?	0	0	0	0	0	0	0
10	2023-04-05	15:33:43	15:44:29	15:44:29:03	43	1	Reminder_Think_CSm	fixation	0	5	1000	0	0	1	995	1	+	-8	0	0	0	0	0	0
10	2023-04-05	15:33:43	15:44:34	15:44:34:021	43	2	Reminder_Think_CSm	Think_CSm	0	5	0	0	0	0	5000	1	+	-16	4	Cue31.jpg	-16	4	Target31.jpg	-16
10	2023-04-05	15:33:43	15:44:37	15:44:37:668	43	3	Reminder_Think_CSm	valence	0	5	0	0	40	0	3593	1	I found these images to be...	-16	0	0	0	0	0	0
10	2023-04-05	15:33:43	15:44:45	15:44:45:336	43	4	Reminder_Think_CSm	expectancy	0	1500	0	0	13	0	7614	1	When you saw the <b>object-scene</b>,   to what <b>degree (0-100%)</b> did you expect the <b>unpleasant sound to occur</b>?	-8	0	0	0	0	0	0
10	2023-04-05	15:33:43	15:44:47	15:44:47:835	44	1	Reminder_NoThink_CSp	fixation	0	5	1000	0	0	1	995	1	+	-14	0	0	0	0	0	0
10	2023-04-05	15:33:43	15:44:52	15:44:52:852	44	2	Reminder_NoThink_CSp	NoThink_CSp	0	5	0	0	0	0	5000	1	+	-16	3	Cue27.jpg	-16	3	Target27.jpg	-16
10	2023-04-05	15:33:43	15:44:54	15:44:54:953	44	3	Reminder_NoThink_CSp	valence	0	5	0	0	43	0	2071	1	I found these images to be...	-16	0	0	0	0	0	0
10	2023-04-05	15:33:43	15:44:58	15:44:58:253	44	4	Reminder_NoThink_CSp	expectancy	0	500	0	0	90	0	3258	1	When you saw the <b>object-scene</b>,   to what <b>degree (0-100%)</b> did you expect the <b>unpleasant sound to occur</b>?	-12	0	0	0	0	0	0
10	2023-04-05	15:33:43	15:44:59	15:44:59:252	45	1	Reminder_Think_CSm	fixation	0	5	500	0	0	1	495	1	+	-14	0	0	0	0	0	0
10	2023-04-05	15:33:43	15:45:04	15:45:04:270	45	2	Reminder_Think_CSm	Think_CSm	0	5	0	0	0	0	5000	1	+	-16	6	Cue28.jpg	-16	6	Target28.jpg	-16
10	2023-04-05	15:33:43	15:45:05	15:45:05:620	45	3	Reminder_Think_CSm	valence	0	5	0	0	50	0	1326	1	I found these images to be...	-16	0	0	0	0	0	0
10	2023-04-05	15:33:43	15:45:11	15:45:11:254	45	4	Reminder_Think_CSm	expectancy	0	1000	0	0	63	0	5591	1	When you saw the <b>object-scene</b>,   to what <b>degree (0-100%)</b> did you expect the <b>unpleasant sound to occur</b>?	-12	0	0	0	0	0	0
10	2023-04-05	15:33:43	15:45:13	15:45:13:753	46	1	Reminder_Think_CSm	fixation	0	5	1500	0	0	1	1495	1	+	-15	0	0	0	0	0	0
10	2023-04-05	15:33:43	15:45:18	15:45:18:771	46	2	Reminder_Think_CSm	Think_CSm	0	5	0	0	0	0	5000	1	+	-14	1	Cue32.jpg	-14	1	Target32.jpg	-14
10	2023-04-05	15:33:43	15:45:24	15:45:24:921	46	3	Reminder_Think_CSm	valence	0	5	0	0	44	0	6097	1	I found these images to be...	-16	0	0	0	0	0	0
10	2023-04-05	15:33:43	15:45:28	15:45:28:555	46	4	Reminder_Think_CSm	expectancy	0	500	0	0	40	0	3594	1	When you saw the <b>object-scene</b>,   to what <b>degree (0-100%)</b> did you expect the <b>unpleasant sound to occur</b>?	-8	0	0	0	0	0	0
10	2023-04-05	15:33:43	15:45:30	15:45:30:054	47	1	Reminder_NoThink_CSp	fixation	0	5	1000	0	0	1	995	1	+	-15	0	0	0	0	0	0
10	2023-04-05	15:33:43	15:45:35	15:45:35:071	47	2	Reminder_NoThink_CSp	NoThink_CSp	0	5	0	0	0	0	5000	1	+	-13	4	Cue2.jpg	-13	4	Target2.jpg	-13
10	2023-04-05	15:33:43	15:45:38	15:45:38:955	47	3	Reminder_NoThink_CSp	valence	0	5	0	0	34	0	3852	1	I found these images to be...	-16	0	0	0	0	0	0
10	2023-04-05	15:33:43	15:45:43	15:45:43:272	47	4	Reminder_NoThink_CSp	expectancy	0	1000	0	0	60	0	4272	1	When you saw the <b>object-scene</b>,   to what <b>degree (0-100%)</b> did you expect the <b>unpleasant sound to occur</b>?	-12	0	0	0	0	0	0
10	2023-04-05	15:33:43	15:45:44	15:45:44:771	48	1	Reminder_NoThink_CSp	fixation	0	5	500	0	0	1	495	1	+	-15	0	0	0	0	0	0
10	2023-04-05	15:33:43	15:45:49	15:45:49:789	48	2	Reminder_NoThink_CSp	NoThink_CSp	0	5	0	0	0	0	5000	1	+	-14	2	Cue4.jpg	-14	2	Target4.jpg	-14
10	2023-04-05	15:33:43	15:45:51	15:45:51:523	48	3	Reminder_NoThink_CSp	valence	0	5	0	0	47	0	1702	1	I found these images to be...	-16	0	0	0	0	0	0
10	2023-04-05	15:33:43	15:45:53	15:45:53:589	48	4	Reminder_NoThink_CSp	expectancy	0	1500	0	0	93	0	2000	1	When you saw the <b>object-scene</b>,   to what <b>degree (0-100%)</b> did you expect the <b>unpleasant sound to occur</b>?	-12	0	0	0	0	0	0
10	2023-04-05	15:33:43	15:45:56	15:45:56:572	49	1	Reminder_Think_CSp	fixation	0	5	1500	0	0	1	1495	1	+	-15	0	0	0	0	0	0
10	2023-04-05	15:33:43	15:46:01	15:46:01:589	49	2	Reminder_Think_CSp	Think_CSp	0	5	0	0	0	0	5000	1	+	-16	2	Cue5.jpg	-16	2	Target5.jpg	-16
10	2023-04-05	15:33:43	15:46:04	15:46:04:06	49	3	Reminder_Think_CSp	valence	0	5	0	0	42	0	2365	1	I found these images to be...	-16	0	0	0	0	0	0
10	2023-04-05	15:33:43	15:46:07	15:46:07:508	49	4	Reminder_Think_CSp	expectancy	0	1500	0	0	60	0	3460	1	When you saw the <b>object-scene</b>,   to what <b>degree (0-100%)</b> did you expect the <b>unpleasant sound to occur</b>?	-11	0	0	0	0	0	0
10	2023-04-05	15:33:43	15:50:51	15:50:51:02	2	1	Practice_NoThink	fixation	0	5	1000	0	0	1	995	1	+	-9	0	0	0	0	0	0
10	2023-04-05	15:33:43	15:50:52	15:50:52:019	2	2	Practice_NoThink	NoThink	0	5	0	0	0	0	1000	1	DON'T THINK	-16	0	0	0	0	0	0
10	2023-04-05	15:33:43	15:50:57	15:50:57:036	2	3	Practice_NoThink	NoThinkCue	0	5	0	0	0	1	5000	2	Cue40.jpg	-16	0	0	0	0	0	0
10	2023-04-05	15:33:43	15:50:59	15:50:59:059	2	4	Practice_NoThink	Intrusion	0	1000	3000	0	0	0	2000	1	How <b>often</b> did you <b>think</b> about the <b>scene</b>?   <center><br><b>NEVER (1)    BRIEFLY (2)   OFTEN (3) </b>	-14	0	0	0	0	0	0
10	2023-04-05	15:33:43	15:51:01	15:51:01:539	3	1	Practice_NoThink	fixation	0	5	500	0	0	1	495	1	+	-9	0	0	0	0	0	0
10	2023-04-05	15:33:43	15:51:02	15:51:02:553	3	2	Practice_NoThink	NoThink	0	5	0	0	0	0	1000	1	DON'T THINK	-16	0	0	0	0	0	0
10	2023-04-05	15:33:43	15:51:07	15:51:07:570	3	3	Practice_NoThink	NoThinkCue	0	5	0	0	0	1	5000	1	Cue39.jpg	-16	0	0	0	0	0	0
10	2023-04-05	15:33:43	15:51:08	15:51:08:945	3	4	Practice_NoThink	Intrusion	0	500	3000	0	80	1	1358	1	How <b>often</b> did you <b>think</b> about the <b>scene</b>?   <center><br><b>NEVER (1)    BRIEFLY (2)   OFTEN (3) </b>	-16	0	0	0	0	0	0
10	2023-04-05	15:33:43	15:51:11	15:51:11:074	4	1	Practice_Think	fixation	0	5	1500	0	0	1	1495	1	+	-16	0	0	0	0	0	0
10	2023-04-05	15:33:43	15:51:12	15:51:12:086	4	2	Practice_Think	Think	0	5	0	0	0	0	1000	1	THINK	-16	0	0	0	0	0	0
10	2023-04-05	15:33:43	15:51:17	15:51:17:103	4	3	Practice_Think	ThinkCue	0	5	0	0	0	1	5000	1	Cue37.jpg	-16	0	0	0	0	0	0
10	2023-04-05	15:33:43	15:51:18	15:51:18:057	4	4	Practice_Think	Intrusion	0	1500	3000	0	81	1	936	1	How <b>often</b> did you <b>think</b> about the <b>scene</b>?   <center><br><b>NEVER (1)    BRIEFLY (2)   OFTEN (3) </b>	-16	0	0	0	0	0	0
10	2023-04-05	15:33:43	15:51:21	15:51:21:107	5	1	Practice_Think	fixation	0	5	1000	0	0	1	995	1	+	-9	0	0	0	0	0	0
10	2023-04-05	15:33:43	15:51:22	15:51:22:120	5	2	Practice_Think	Think	0	5	0	0	0	0	1000	1	THINK	-16	0	0	0	0	0	0
10	2023-04-05	15:33:43	15:51:27	15:51:27:137	5	3	Practice_Think	ThinkCue	0	5	0	0	0	1	5000	2	Cue38.jpg	-16	0	0	0	0	0	0
10	2023-04-05	15:33:43	15:51:29	15:51:29:633	5	4	Practice_Think	Intrusion	0	1500	3000	0	81	1	1478	1	How <b>often</b> did you <b>think</b> about the <b>scene</b>?   <center><br><b>NEVER (1)    BRIEFLY (2)   OFTEN (3) </b>	-16	0	0	0	0	0	0
10	2023-04-05	15:33:43	15:55:16	15:55:16:201	6	1	Practice_Betweenblocks1	Practice_Betweenblocks1	0	5	0	0	57	1	226029	1	<center><br><br><br><br>This is the end of the first practice round. <br><br>There will be 2 more practice rounds.  <br><br> Please await further instruction from the experimenter.	-16	0	0	0	0	0	0
10	2023-04-05	15:33:43	15:55:18	15:55:18:704	7	1	Practice_Think	fixation	0	5	1500	0	0	1	1495	1	+	-9	0	0	0	0	0	0
10	2023-04-05	15:33:43	15:55:19	15:55:19:718	7	2	Practice_Think	Think	0	5	0	0	0	0	1000	1	THINK	-16	0	0	0	0	0	0
10	2023-04-05	15:33:43	15:55:24	15:55:24:734	7	3	Practice_Think	ThinkCue	0	5	0	0	0	1	5000	1	Cue37.jpg	-16	0	0	0	0	0	0
10	2023-04-05	15:33:43	15:55:25	15:55:25:809	7	4	Practice_Think	Intrusion	0	500	3000	0	81	1	1057	1	How <b>often</b> did you <b>think</b> about the <b>scene</b>?   <center><br><b>NEVER (1)    BRIEFLY (2)   OFTEN (3) </b>	-16	0	0	0	0	0	0
10	2023-04-05	15:33:43	15:55:28	15:55:28:238	8	1	Practice_NoThink	fixation	0	5	500	0	0	1	495	1	+	-8	0	0	0	0	0	0
10	2023-04-05	15:33:43	15:55:29	15:55:29:252	8	2	Practice_NoThink	NoThink	0	5	0	0	0	0	1000	1	DON'T THINK	-16	0	0	0	0	0	0
10	2023-04-05	15:33:43	15:55:34	15:55:34:269	8	3	Practice_NoThink	NoThinkCue	0	5	0	0	0	1	5000	2	Cue40.jpg	-16	0	0	0	0	0	0
10	2023-04-05	15:33:43	15:55:36	15:55:36:276	8	4	Practice_NoThink	Intrusion	0	1000	3000	0	0	0	2000	1	How <b>often</b> did you <b>think</b> about the <b>scene</b>?   <center><br><b>NEVER (1)    BRIEFLY (2)   OFTEN (3) </b>	-16	0	0	0	0	0	0
10	2023-04-05	15:33:43	15:55:38	15:55:38:773	9	1	Practice_NoThink	fixation	0	5	1500	0	0	1	1495	1	+	-16	0	0	0	0	0	0
10	2023-04-05	15:33:43	15:55:39	15:55:39:786	9	2	Practice_NoThink	NoThink	0	5	0	0	0	0	1000	1	DON'T THINK	-16	0	0	0	0	0	0
10	2023-04-05	15:33:43	15:55:44	15:55:44:802	9	3	Practice_NoThink	NoThinkCue	0	5	0	0	0	1	5000	1	Cue39.jpg	-16	0	0	0	0	0	0
10	2023-04-05	15:33:43	15:55:45	15:55:45:537	9	4	Practice_NoThink	Intrusion	0	1000	3000	0	80	1	717	1	How <b>often</b> did you <b>think</b> about the <b>scene</b>?   <center><br><b>NEVER (1)    BRIEFLY (2)   OFTEN (3) </b>	-16	0	0	0	0	0	0
10	2023-04-05	15:33:43	15:55:48	15:55:48:807	10	1	Practice_Think	fixation	0	5	1000	0	0	1	995	1	+	-16	0	0	0	0	0	0
10	2023-04-05	15:33:43	15:55:49	15:55:49:819	10	2	Practice_Think	Think	0	5	0	0	0	0	1000	1	THINK	-16	0	0	0	0	0	0
10	2023-04-05	15:33:43	15:55:54	15:55:54:836	10	3	Practice_Think	ThinkCue	0	5	0	0	0	1	5000	2	Cue38.jpg	-16	0	0	0	0	0	0
10	2023-04-05	15:33:43	15:55:55	15:55:55:825	10	4	Practice_Think	Intrusion	0	500	3000	0	81	1	971	1	How <b>often</b> did you <b>think</b> about the <b>scene</b>?   <center><br><b>NEVER (1)    BRIEFLY (2)   OFTEN (3) </b>	-16	0	0	0	0	0	0
10	2023-04-05	15:33:43	15:56:57	15:56:57:920	11	1	Practice_Betweenblocks2	Practice_Betweenblocks2	0	5	0	0	57	1	60033	1	<center><br><br><br><br>This is the end of the second practice round. <br><br>There will be 1 more practice round.  <br><br> Please await further instruction from the experimenter.	-8	0	0	0	0	0	0
10	2023-04-05	15:33:43	15:56:58	15:56:58:422	12	1	Practice_Think	fixation	0	5	500	0	0	1	495	1	+	-9	0	0	0	0	0	0
10	2023-04-05	15:33:43	15:56:59	15:56:59:440	12	2	Practice_Think	Think	0	5	0	0	0	0	1000	1	THINK	-16	0	0	0	0	0	0
10	2023-04-05	15:33:43	15:57:04	15:57:04:457	12	3	Practice_Think	ThinkCue	0	5	0	0	0	1	5000	1	Cue37.jpg	-16	0	0	0	0	0	0
10	2023-04-05	15:33:43	15:57:04	15:57:04:073	12	4	Practice_Think	Intrusion	0	1500	3000	0	81	1	598	1	How <b>often</b> did you <b>think</b> about the <b>scene</b>?   <center><br><b>NEVER (1)    BRIEFLY (2)   OFTEN (3) </b>	-16	0	0	0	0	0	0
10	2023-04-05	15:33:43	15:57:07	15:57:07:961	13	1	Practice_NoThink	fixation	0	5	500	0	0	1	495	1	+	-9	0	0	0	0	0	0
10	2023-04-05	15:33:43	15:57:08	15:57:08:974	13	2	Practice_NoThink	NoThink	0	5	0	0	0	0	1000	1	DON'T THINK	-16	0	0	0	0	0	0
10	2023-04-05	15:33:43	15:57:13	15:57:13:991	13	3	Practice_NoThink	NoThinkCue	0	5	0	0	0	1	5000	2	Cue40.jpg	-16	0	0	0	0	0	0
10	2023-04-05	15:33:43	15:57:14	15:57:14:529	13	4	Practice_NoThink	Intrusion	0	1000	3000	0	80	1	520	1	How <b>often</b> did you <b>think</b> about the <b>scene</b>?   <center><br><b>NEVER (1)    BRIEFLY (2)   OFTEN (3) </b>	-16	0	0	0	0	0	0
10	2023-04-05	15:33:43	15:57:17	15:57:17:995	14	1	Practice_NoThink	fixation	0	5	1000	0	0	1	995	1	+	-7	0	0	0	0	0	0
10	2023-04-05	15:33:43	15:57:18	15:57:18:08	14	2	Practice_NoThink	NoThink	0	5	0	0	0	0	1000	1	DON'T THINK	-16	0	0	0	0	0	0
10	2023-04-05	15:33:43	15:57:23	15:57:23:025	14	3	Practice_NoThink	NoThinkCue	0	5	0	0	0	1	5000	1	Cue39.jpg	-16	0	0	0	0	0	0
10	2023-04-05	15:33:43	15:57:24	15:57:24:929	14	4	Practice_NoThink	Intrusion	0	500	3000	0	80	1	886	1	How <b>often</b> did you <b>think</b> about the <b>scene</b>?   <center><br><b>NEVER (1)    BRIEFLY (2)   OFTEN (3) </b>	-16	0	0	0	0	0	0
10	2023-04-05	15:33:43	15:57:28	15:57:28:528	15	1	Practice_Think	fixation	0	5	1500	0	0	1	1495	1	+	-8	0	0	0	0	0	0
10	2023-04-05	15:33:43	15:57:29	15:57:29:542	15	2	Practice_Think	Think	0	5	0	0	0	0	1000	1	THINK	-16	0	0	0	0	0	0
10	2023-04-05	15:33:43	15:57:34	15:57:34:559	15	3	Practice_Think	ThinkCue	0	5	0	0	0	1	5000	2	Cue38.jpg	-16	0	0	0	0	0	0
10	2023-04-05	15:33:43	15:57:34	15:57:34:201	15	4	Practice_Think	Intrusion	0	1500	3000	0	81	1	624	1	How <b>often</b> did you <b>think</b> about the <b>scene</b>?   <center><br><b>NEVER (1)    BRIEFLY (2)   OFTEN (3) </b>	-16	0	0	0	0	0	0
10	2023-04-05	15:33:43	15:58:19	15:58:19:00	2	1	TNT_NoThink_CSm	fixation	0	5	1000	0	0	1	995	1	+	-8	0	0	0	0	0	0
10	2023-04-05	15:33:43	15:58:21	15:58:21:019	2	2	TNT_NoThink_CSm	NoThink	0	5	0	0	0	0	1000	1	DON'T THINK	-16	0	0	0	0	0	0
10	2023-04-05	15:33:43	15:58:26	15:58:26:036	2	3	TNT_NoThink_CSm	TNT_NoThink_CSm	0	5	0	0	0	0	5000	2	Cue22.jpg	-16	0	0	0	0	0	0
10	2023-04-05	15:33:43	15:58:26	15:58:26:879	2	4	TNT_NoThink_CSm	Intrusion	0	500	3000	0	80	1	825	1	How <b>often</b> did you <b>think</b> about the <b>scene</b>?   <center><br><b>NEVER (1)    BRIEFLY (2)   OFTEN (3) </b>	-16	0	0	0	0	0	0
10	2023-04-05	15:33:43	15:58:29	15:58:29:540	3	1	TNT_Think_CSm	fixation	0	5	500	0	0	1	495	1	+	-8	0	0	0	0	0	0
10	2023-04-05	15:33:43	15:58:30	15:58:30:553	3	2	TNT_Think_CSm	Think	0	5	0	0	0	0	1000	1	THINK	-16	0	0	0	0	0	0
10	2023-04-05	15:33:43	15:58:35	15:58:35:570	3	3	TNT_Think_CSm	TNT_Think_CSm	0	5	0	0	0	0	5000	5	Cue26.jpg	-16	0	0	0	0	0	0
10	2023-04-05	15:33:43	15:58:36	15:58:36:719	3	4	TNT_Think_CSm	Intrusion	0	1500	3000	0	81	1	1131	1	How <b>often</b> did you <b>think</b> about the <b>scene</b>?   <center><br><b>NEVER (1)    BRIEFLY (2)   OFTEN (3) </b>	-16	0	0	0	0	0	0
10	2023-04-05	15:33:43	15:58:40	15:58:40:073	4	1	TNT_NoThink_CSp	fixation	0	5	1500	0	0	1	1495	1	+	-8	0	0	0	0	0	0
10	2023-04-05	15:33:43	15:58:41	15:58:41:087	4	2	TNT_NoThink_CSp	NoThink	0	5	0	0	0	0	1000	1	DON'T THINK	-16	0	0	0	0	0	0
10	2023-04-05	15:33:43	15:58:46	15:58:46:104	4	3	TNT_NoThink_CSp	TNT_NoThink_CSp	0	5	0	0	0	0	5000	6	Cue16.jpg	-16	0	0	0	0	0	0
10	2023-04-05	15:33:43	15:58:47	15:58:47:135	4	4	TNT_NoThink_CSp	Intrusion	0	1000	3000	0	80	1	1014	1	How <b>often</b> did you <b>think</b> about the <b>scene</b>?   <center><br><b>NEVER (1)    BRIEFLY (2)   OFTEN (3) </b>	-16	0	0	0	0	0	0
10	2023-04-05	15:33:43	15:58:49	15:58:49:607	5	1	TNT_Object_CSp	fixation	0	5	500	0	0	1	495	1	+	-9	0	0	0	0	0	0
10	2023-04-05	15:33:43	15:58:50	15:58:50:621	5	2	TNT_Object_CSp	Passive	0	5	0	0	0	0	1000	1	VIEW	-16	0	0	0	0	0	0
10	2023-04-05	15:33:43	15:58:55	15:58:55:638	5	3	TNT_Object_CSp	TNT_Object_CSp	0	1500	0	0	0	0	5000	3	Object6.jpg	-16	0	0	0	0	0	0
10	2023-04-05	15:33:43	15:58:58	15:58:58:137	6	1	TNT_NoThink_CSm	fixation	0	5	1000	0	0	1	995	1	+	-9	0	0	0	0	0	0
10	2023-04-05	15:33:43	15:58:59	15:58:59:155	6	2	TNT_NoThink_CSm	NoThink	0	5	0	0	0	0	1000	1	DON'T THINK	-16	0	0	0	0	0	0
10	2023-04-05	15:33:43	15:59:04	15:59:04:172	6	3	TNT_NoThink_CSm	TNT_NoThink_CSm	0	5	0	0	0	0	5000	4	Cue15.jpg	-16	0	0	0	0	0	0
10	2023-04-05	15:33:43	15:59:05	15:59:05:295	6	4	TNT_NoThink_CSm	Intrusion	0	1000	3000	0	80	1	1105	1	How <b>often</b> did you <b>think</b> about the <b>scene</b>?   <center><br><b>NEVER (1)    BRIEFLY (2)   OFTEN (3) </b>	-16	0	0	0	0	0	0
10	2023-04-05	15:33:43	15:59:08	15:59:08:676	7	1	TNT_NoThink_CSm	fixation	0	5	1500	0	0	1	1495	1	+	-16	0	0	0	0	0	0
10	2023-04-05	15:33:43	15:59:09	15:59:09:689	7	2	TNT_NoThink_CSm	NoThink	0	5	0	0	0	0	1000	1	DON'T THINK	-16	0	0	0	0	0	0
10	2023-04-05	15:33:43	15:59:14	15:59:14:705	7	3	TNT_NoThink_CSm	TNT_NoThink_CSm	0	5	0	0	0	0	5000	6	Cue8.jpg	-16	0	0	0	0	0	0
10	2023-04-05	15:33:43	15:59:15	15:59:15:423	7	4	TNT_NoThink_CSm	Intrusion	0	1500	3000	0	80	1	700	1	How <b>often</b> did you <b>think</b> about the <b>scene</b>?   <center><br><b>NEVER (1)    BRIEFLY (2)   OFTEN (3) </b>	-16	0	0	0	0	0	0
10	2023-04-05	15:33:43	15:59:19	15:59:19:209	8	1	TNT_Think_CSm	fixation	0	5	1500	0	0	1	1495	1	+	-9	0	0	0	0	0	0
10	2023-04-05	15:33:43	15:59:20	15:59:20:223	8	2	TNT_Think_CSm	Think	0	5	0	0	0	0	1000	1	THINK	-16	0	0	0	0	0	0
10	2023-04-05	15:33:43	15:59:25	15:59:25:240	8	3	TNT_Think_CSm	TNT_Think_CSm	0	5	0	0	0	0	5000	3	Cue18.jpg	-16	0	0	0	0	0	0
10	2023-04-05	15:33:43	15:59:26	15:59:26:255	8	4	TNT_Think_CSm	Intrusion	0	500	3000	0	81	1	998	1	How <b>often</b> did you <b>think</b> about the <b>scene</b>?   <center><br><b>NEVER (1)    BRIEFLY (2)   OFTEN (3) </b>	-16	0	0	0	0	0	0
10	2023-04-05	15:33:43	15:59:29	15:59:29:244	9	1	TNT_Object_CSm	fixation	0	5	1000	0	0	1	995	1	+	-16	0	0	0	0	0	0
10	2023-04-05	15:33:43	15:59:30	15:59:30:257	9	2	TNT_Object_CSm	Passive	0	5	0	0	0	0	1000	1	VIEW	-16	0	0	0	0	0	0
10	2023-04-05	15:33:43	15:59:35	15:59:35:273	9	3	TNT_Object_CSm	TNT_Object_CSm	0	500	0	0	0	0	5000	2	Object1.jpg	-16	0	0	0	0	0	0
10	2023-04-05	15:33:43	15:59:36	15:59:36:273	10	1	TNT_Think_CSm	fixation	0	5	500	0	0	1	495	1	+	-9	0	0	0	0	0	0
10	2023-04-05	15:33:43	15:59:37	15:59:37:290	10	2	TNT_Think_CSm	Think	0	5	0	0	0	0	1000	1	THINK	-16	0	0	0	0	0	0
10	2023-04-05	15:33:43	15:59:42	15:59:42:307	10	3	TNT_Think_CSm	TNT_Think_CSm	0	5	0	0	0	0	5000	6	Cue28.jpg	-16	0	0	0	0	0	0
10	2023-04-05	15:33:43	15:59:43	15:59:43:230	10	4	TNT_Think_CSm	Intrusion	0	1500	3000	0	81	1	906	1	How <b>often</b> did you <b>think</b> about the <b>scene</b>?   <center><br><b>NEVER (1)    BRIEFLY (2)   OFTEN (3) </b>	-16	0	0	0	0	0	0
10	2023-04-05	15:33:43	15:59:45	15:59:45:811	11	1	TNT_NoThink_CSp	fixation	0	5	500	0	0	1	495	1	+	-16	0	0	0	0	0	0
10	2023-04-05	15:33:43	15:59:46	15:59:46:824	11	2	TNT_NoThink_CSp	NoThink	0	5	0	0	0	0	1000	1	DON'T THINK	-16	0	0	0	0	0	0
10	2023-04-05	15:33:43	15:59:51	15:59:51:841	11	3	TNT_NoThink_CSp	TNT_NoThink_CSp	0	5	0	0	0	0	5000	1	Cue6.jpg	-16	0	0	0	0	0	0
10	2023-04-05	15:33:43	15:59:52	15:59:52:510	11	4	TNT_NoThink_CSp	Intrusion	0	1000	3000	0	80	1	652	1	How <b>often</b> did you <b>think</b> about the <b>scene</b>?   <center><br><b>NEVER (1)    BRIEFLY (2)   OFTEN (3) </b>	-16	0	0	0	0	0	0
10	2023-04-05	15:33:43	15:59:55	15:59:55:845	12	1	TNT_Object_CSm	fixation	0	5	1000	0	0	1	995	1	+	-9	0	0	0	0	0	0
10	2023-04-05	15:33:43	15:59:56	15:59:56:858	12	2	TNT_Object_CSm	Passive	0	5	0	0	0	0	1000	1	VIEW	-16	0	0	0	0	0	0
10	2023-04-05	15:33:43	16:00:01	16:00:01:875	12	3	TNT_Object_CSm	TNT_Object_CSm	0	1500	0	0	0	0	5000	1	Object8.jpg	-16	0	0	0	0	0	0
10	2023-04-05	15:33:43	16:00:04	16:00:04:873	13	1	TNT_Object_CSp	fixation	0	5	1500	0	0	1	1495	1	+	-8	0	0	0	0	0	0
10	2023-04-05	15:33:43	16:00:05	16:00:05:892	13	2	TNT_Object_CSp	Passive	0	5	0	0	0	0	1000	1	VIEW	-16	0	0	0	0	0	0
10	2023-04-05	15:33:43	16:00:10	16:00:10:909	13	3	TNT_Object_CSp	TNT_Object_CSp	0	1000	0	0	0	0	5000	1	Object3.jpg	-16	0	0	0	0	0	0
10	2023-04-05	15:33:43	16:00:13	16:00:13:408	14	1	TNT_Think_CSp	fixation	0	5	1500	0	0	1	1495	1	+	-9	0	0	0	0	0	0
10	2023-04-05	15:33:43	16:00:14	16:00:14:426	14	2	TNT_Think_CSp	Think	0	5	0	0	0	0	1000	1	THINK	-16	0	0	0	0	0	0
10	2023-04-05	15:33:43	16:00:19	16:00:19:443	14	3	TNT_Think_CSp	TNT_Think_CSp	0	5	0	0	0	0	5000	6	Cue36.jpg	-16	0	0	0	0	0	0
10	2023-04-05	15:33:43	16:00:20	16:00:20:207	14	4	TNT_Think_CSp	Intrusion	0	500	3000	0	81	1	746	1	How <b>often</b> did you <b>think</b> about the <b>scene</b>?   <center><br><b>NEVER (1)    BRIEFLY (2)   OFTEN (3) </b>	-16	0	0	0	0	0	0
10	2023-04-05	15:33:43	16:00:22	16:00:22:946	15	1	TNT_Think_CSm	fixation	0	5	500	0	0	1	495	1	+	-9	0	0	0	0	0	0
10	2023-04-05	15:33:43	16:00:23	16:00:23:959	15	2	TNT_Think_CSm	Think	0	5	0	0	0	0	1000	1	THINK	-16	0	0	0	0	0	0
10	2023-04-05	15:33:43	16:00:28	16:00:28:976	15	3	TNT_Think_CSm	TNT_Think_CSm	0	5	0	0	0	0	5000	1	Cue32.jpg	-16	0	0	0	0	0	0
10	2023-04-05	15:33:43	16:00:29	16:00:29:903	15	4	TNT_Think_CSm	Intrusion	0	500	3000	0	81	1	909	1	How <b>often</b> did you <b>think</b> about the <b>scene</b>?   <center><br><b>NEVER (1)    BRIEFLY (2)   OFTEN (3) </b>	-16	0	0	0	0	0	0
10	2023-04-05	15:33:43	16:00:32	16:00:32:980	16	1	TNT_Think_CSm	fixation	0	5	1000	0	0	1	995	1	+	-8	0	0	0	0	0	0
10	2023-04-05	15:33:43	16:00:33	16:00:33:993	16	2	TNT_Think_CSm	Think	0	5	0	0	0	0	1000	1	THINK	-16	0	0	0	0	0	0
10	2023-04-05	15:33:43	16:00:39	16:00:39:011	16	3	TNT_Think_CSm	TNT_Think_CSm	0	5	0	0	0	0	5000	2	Cue25.jpg	-16	0	0	0	0	0	0
10	2023-04-05	15:33:43	16:00:39	16:00:39:982	16	4	TNT_Think_CSm	Intrusion	0	1500	3000	0	81	1	955	1	How <b>often</b> did you <b>think</b> about the <b>scene</b>?   <center><br><b>NEVER (1)    BRIEFLY (2)   OFTEN (3) </b>	-16	0	0	0	0	0	0
10	2023-04-05	15:33:43	16:00:43	16:00:43:015	17	1	TNT_Object_CSp	fixation	0	5	1000	0	0	1	995	1	+	-16	0	0	0	0	0	0
10	2023-04-05	15:33:43	16:00:44	16:00:44:028	17	2	TNT_Object_CSp	Passive	0	5	0	0	0	0	1000	1	VIEW	-16	0	0	0	0	0	0
10	2023-04-05	15:33:43	16:00:49	16:00:49:045	17	3	TNT_Object_CSp	TNT_Object_CSp	0	500	0	0	0	0	5000	4	Object2.jpg	-16	0	0	0	0	0	0
10	2023-04-05	15:33:43	16:00:50	16:00:50:044	18	1	TNT_Object_CSp	fixation	0	5	500	0	0	1	495	1	+	-8	0	0	0	0	0	0
10	2023-04-05	15:33:43	16:00:51	16:00:51:061	18	2	TNT_Object_CSp	Passive	0	5	0	0	0	0	1000	1	VIEW	-16	0	0	0	0	0	0
10	2023-04-05	15:33:43	16:00:56	16:00:56:078	18	3	TNT_Object_CSp	TNT_Object_CSp	0	500	0	0	0	0	5000	2	Object5.jpg	-16	0	0	0	0	0	0
10	2023-04-05	15:33:43	16:00:58	16:00:58:076	19	1	TNT_NoThink_CSm	fixation	0	5	1500	0	0	1	1495	1	+	-8	0	0	0	0	0	0
10	2023-04-05	15:33:43	16:00:59	16:00:59:095	19	2	TNT_NoThink_CSm	NoThink	0	5	0	0	0	0	1000	1	DON'T THINK	-16	0	0	0	0	0	0
10	2023-04-05	15:33:43	16:01:04	16:01:04:112	19	3	TNT_NoThink_CSm	TNT_NoThink_CSm	0	5	0	0	0	0	5000	5	Cue14.jpg	-16	0	0	0	0	0	0
10	2023-04-05	15:33:43	16:01:04	16:01:04:926	19	4	TNT_NoThink_CSm	Intrusion	0	1000	3000	0	80	1	797	1	How <b>often</b> did you <b>think</b> about the <b>scene</b>?   <center><br><b>NEVER (1)    BRIEFLY (2)   OFTEN (3) </b>	-16	0	0	0	0	0	0
10	2023-04-05	15:33:43	16:01:07	16:01:07:616	20	1	TNT_NoThink_CSp	fixation	0	5	500	0	0	1	495	1	+	-9	0	0	0	0	0	0
10	2023-04-05	15:33:43	16:01:08	16:01:08:629	20	2	TNT_NoThink_CSp	NoThink	0	5	0	0	0	0	1000	1	DON'T THINK	-16	0	0	0	0	0	0
10	2023-04-05	15:33:43	16:01:13	16:01:13:646	20	3	TNT_NoThink_CSp	TNT_NoThink_CSp	0	5	0	0	0	0	5000	2	Cue4.jpg	-16	0	0	0	0	0	0
10	2023-04-05	15:33:43	16:01:14	16:01:14:431	20	4	TNT_NoThink_CSp	Intrusion	0	1000	3000	0	80	1	768	1	How <b>often</b> did you <b>think</b> about the <b>scene</b>?   <center><br><b>NEVER (1)    BRIEFLY (2)   OFTEN (3) </b>	-16	0	0	0	0	0	0
10	2023-04-05	15:33:43	16:01:18	16:01:18:150	21	1	TNT_Think_CSm	fixation	0	5	1500	0	0	1	1495	1	+	-16	0	0	0	0	0	0
10	2023-04-05	15:33:43	16:01:19	16:01:19:163	21	2	TNT_Think_CSm	Think	0	5	0	0	0	0	1000	1	THINK	-16	0	0	0	0	0	0
10	2023-04-05	15:33:43	16:01:24	16:01:24:180	21	3	TNT_Think_CSm	TNT_Think_CSm	0	5	0	0	0	0	5000	4	Cue31.jpg	-16	0	0	0	0	0	0
10	2023-04-05	15:33:43	16:01:24	16:01:24:926	21	4	TNT_Think_CSm	Intrusion	0	500	3000	0	81	1	729	1	How <b>often</b> did you <b>think</b> about the <b>scene</b>?   <center><br><b>NEVER (1)    BRIEFLY (2)   OFTEN (3) </b>	-16	0	0	0	0	0	0
10	2023-04-05	15:33:43	16:01:28	16:01:28:183	22	1	TNT_NoThink_CSp	fixation	0	5	1000	0	0	1	995	1	+	-9	0	0	0	0	0	0
10	2023-04-05	15:33:43	16:01:29	16:01:29:197	22	2	TNT_NoThink_CSp	NoThink	0	5	0	0	0	0	1000	1	DON'T THINK	-16	0	0	0	0	0	0
10	2023-04-05	15:33:43	16:01:34	16:01:34:214	22	3	TNT_NoThink_CSp	TNT_NoThink_CSp	0	5	0	0	0	0	5000	5	Cue29.jpg	-16	0	0	0	0	0	0
10	2023-04-05	15:33:43	16:01:35	16:01:35:310	22	4	TNT_NoThink_CSp	Intrusion	0	1500	3000	0	80	1	1079	1	How <b>often</b> did you <b>think</b> about the <b>scene</b>?   <center><br><b>NEVER (1)    BRIEFLY (2)   OFTEN (3) </b>	-16	0	0	0	0	0	0
10	2023-04-05	15:33:43	16:01:37	16:01:37:717	23	1	TNT_NoThink_CSm	fixation	0	5	500	0	0	1	495	1	+	-8	0	0	0	0	0	0
10	2023-04-05	15:33:43	16:01:38	16:01:38:731	23	2	TNT_NoThink_CSm	NoThink	0	5	0	0	0	0	1000	1	DON'T THINK	-16	0	0	0	0	0	0
10	2023-04-05	15:33:43	16:01:43	16:01:43:748	23	3	TNT_NoThink_CSm	TNT_NoThink_CSm	0	5	0	0	0	0	5000	1	Cue7.jpg	-16	0	0	0	0	0	0
10	2023-04-05	15:33:43	16:01:44	16:01:44:542	23	4	TNT_NoThink_CSm	Intrusion	0	1500	3000	0	80	1	777	1	How <b>often</b> did you <b>think</b> about the <b>scene</b>?   <center><br><b>NEVER (1)    BRIEFLY (2)   OFTEN (3) </b>	-16	0	0	0	0	0	0
10	2023-04-05	15:33:43	16:01:48	16:01:48:252	24	1	TNT_Object_CSm	fixation	0	5	1500	0	0	1	1495	1	+	-9	0	0	0	0	0	0
10	2023-04-05	15:33:43	16:01:49	16:01:49:265	24	2	TNT_Object_CSm	Passive	0	5	0	0	0	0	1000	1	VIEW	-16	0	0	0	0	0	0
10	2023-04-05	15:33:43	16:01:54	16:01:54:282	24	3	TNT_Object_CSm	TNT_Object_CSm	0	1000	0	0	0	0	5000	3	Object4.jpg	-16	0	0	0	0	0	0
10	2023-04-05	15:33:43	16:01:56	16:01:56:281	25	1	TNT_NoThink_CSp	fixation	0	5	1000	0	0	1	995	1	+	-8	0	0	0	0	0	0
10	2023-04-05	15:33:43	16:01:57	16:01:57:299	25	2	TNT_NoThink_CSp	NoThink	0	5	0	0	0	0	1000	1	DON'T THINK	-16	0	0	0	0	0	0
10	2023-04-05	15:33:43	16:02:02	16:02:02:315	25	3	TNT_NoThink_CSp	TNT_NoThink_CSp	0	5	0	0	0	0	5000	3	Cue27.jpg	-16	0	0	0	0	0	0
10	2023-04-05	15:33:43	16:02:03	16:02:03:358	25	4	TNT_NoThink_CSp	Intrusion	0	500	3000	0	80	1	1026	1	How <b>often</b> did you <b>think</b> about the <b>scene</b>?   <center><br><b>NEVER (1)    BRIEFLY (2)   OFTEN (3) </b>	-16	0	0	0	0	0	0
10	2023-04-05	15:33:43	16:02:05	16:02:05:819	26	1	TNT_Think_CSp	fixation	0	5	500	0	0	1	495	1	+	-8	0	0	0	0	0	0
10	2023-04-05	15:33:43	16:02:06	16:02:06:832	26	2	TNT_Think_CSp	Think	0	5	0	0	0	0	1000	1	THINK	-16	0	0	0	0	0	0
10	2023-04-05	15:33:43	16:02:11	16:02:11:850	26	3	TNT_Think_CSp	TNT_Think_CSp	0	5	0	0	0	0	5000	1	Cue19.jpg	-16	0	0	0	0	0	0
10	2023-04-05	15:33:43	16:02:12	16:02:12:718	26	4	TNT_Think_CSp	Intrusion	0	1000	3000	0	81	1	852	1	How <b>often</b> did you <b>think</b> about the <b>scene</b>?   <center><br><b>NEVER (1)    BRIEFLY (2)   OFTEN (3) </b>	-16	0	0	0	0	0	0
10	2023-04-05	15:33:43	16:02:16	16:02:16:354	27	1	TNT_Think_CSp	fixation	0	5	1500	0	0	1	1495	1	+	-16	0	0	0	0	0	0
10	2023-04-05	15:33:43	16:02:17	16:02:17:366	27	2	TNT_Think_CSp	Think	0	5	0	0	0	0	1000	1	THINK	-16	0	0	0	0	0	0
10	2023-04-05	15:33:43	16:02:22	16:02:22:383	27	3	TNT_Think_CSp	TNT_Think_CSp	0	5	0	0	0	0	5000	4	Cue12.jpg	-16	0	0	0	0	0	0
10	2023-04-05	15:33:43	16:02:23	16:02:23:246	27	4	TNT_Think_CSp	Intrusion	0	1500	3000	0	81	1	846	1	How <b>often</b> did you <b>think</b> about the <b>scene</b>?   <center><br><b>NEVER (1)    BRIEFLY (2)   OFTEN (3) </b>	-16	0	0	0	0	0	0
10	2023-04-05	15:33:43	16:02:26	16:02:26:387	28	1	TNT_Object_CSm	fixation	0	5	1000	0	0	1	995	1	+	-8	0	0	0	0	0	0
10	2023-04-05	15:33:43	16:02:27	16:02:27:400	28	2	TNT_Object_CSm	Passive	0	5	0	0	0	0	1000	1	VIEW	-16	0	0	0	0	0	0
10	2023-04-05	15:33:43	16:02:32	16:02:32:417	28	3	TNT_Object_CSm	TNT_Object_CSm	0	1000	0	0	0	0	5000	4	Object7.jpg	-16	0	0	0	0	0	0
10	2023-04-05	15:33:43	16:02:33	16:02:33:917	29	1	TNT_Think_CSp	fixation	0	5	500	0	0	1	495	1	+	-9	0	0	0	0	0	0
10	2023-04-05	15:33:43	16:02:34	16:02:34:934	29	2	TNT_Think_CSp	Think	0	5	0	0	0	0	1000	1	THINK	-16	0	0	0	0	0	0
10	2023-04-05	15:33:43	16:02:39	16:02:39:951	29	3	TNT_Think_CSp	TNT_Think_CSp	0	5	0	0	0	0	5000	2	Cue5.jpg	-16	0	0	0	0	0	0
10	2023-04-05	15:33:43	16:02:40	16:02:40:814	29	4	TNT_Think_CSp	Intrusion	0	1000	3000	0	81	1	846	1	How <b>often</b> did you <b>think</b> about the <b>scene</b>?   <center><br><b>NEVER (1)    BRIEFLY (2)   OFTEN (3) </b>	-16	0	0	0	0	0	0
10	2023-04-05	15:33:43	16:02:43	16:02:43:955	30	1	TNT_Think_CSp	fixation	0	5	1000	0	0	1	995	1	+	-8	0	0	0	0	0	0
10	2023-04-05	15:33:43	16:02:44	16:02:44:968	30	2	TNT_Think_CSp	Think	0	5	0	0	0	0	1000	1	THINK	-16	0	0	0	0	0	0
10	2023-04-05	15:33:43	16:02:49	16:02:49:985	30	3	TNT_Think_CSp	TNT_Think_CSp	0	5	0	0	0	0	5000	3	Cue13.jpg	-16	0	0	0	0	0	0
10	2023-04-05	15:33:43	16:02:50	16:02:50:670	30	4	TNT_Think_CSp	Intrusion	0	500	3000	0	81	1	668	1	How <b>often</b> did you <b>think</b> about the <b>scene</b>?   <center><br><b>NEVER (1)    BRIEFLY (2)   OFTEN (3) </b>	-16	0	0	0	0	0	0
10	2023-04-05	15:33:43	16:02:54	16:02:54:489	31	1	TNT_NoThink_CSp	fixation	0	5	1500	0	0	1	1495	1	+	-9	0	0	0	0	0	0
10	2023-04-05	15:33:43	16:02:55	16:02:55:502	31	2	TNT_NoThink_CSp	NoThink	0	5	0	0	0	0	1000	1	DON'T THINK	-16	0	0	0	0	0	0
10	2023-04-05	15:33:43	16:03:00	16:03:00:519	31	3	TNT_NoThink_CSp	TNT_NoThink_CSp	0	5	0	0	0	0	5000	4	Cue2.jpg	-16	0	0	0	0	0	0
10	2023-04-05	15:33:43	16:03:01	16:03:01:102	31	4	TNT_NoThink_CSp	Intrusion	0	1500	3000	0	80	1	566	1	How <b>often</b> did you <b>think</b> about the <b>scene</b>?   <center><br><b>NEVER (1)    BRIEFLY (2)   OFTEN (3) </b>	-16	0	0	0	0	0	0
10	2023-04-05	15:33:43	16:03:04	16:03:04:023	32	1	TNT_NoThink_CSm	fixation	0	5	500	0	0	1	495	1	+	-9	0	0	0	0	0	0
10	2023-04-05	15:33:43	16:03:05	16:03:05:036	32	2	TNT_NoThink_CSm	NoThink	0	5	0	0	0	0	1000	1	DON'T THINK	-16	0	0	0	0	0	0
10	2023-04-05	15:33:43	16:03:10	16:03:10:053	32	3	TNT_NoThink_CSm	TNT_NoThink_CSm	0	5	0	0	0	0	5000	3	Cue24.jpg	-16	0	0	0	0	0	0
10	2023-04-05	15:33:43	16:03:11	16:03:11:102	32	4	TNT_NoThink_CSm	Intrusion	0	500	3000	0	80	1	1033	1	How <b>often</b> did you <b>think</b> about the <b>scene</b>?   <center><br><b>NEVER (1)    BRIEFLY (2)   OFTEN (3) </b>	-16	0	0	0	0	0	0
10	2023-04-05	15:33:43	16:03:14	16:03:14:056	33	1	TNT_Think_CSp	fixation	0	5	1000	0	0	1	995	1	+	-9	0	0	0	0	0	0
10	2023-04-05	15:33:43	16:03:15	16:03:15:070	33	2	TNT_Think_CSp	Think	0	5	0	0	0	0	1000	1	THINK	-16	0	0	0	0	0	0
10	2023-04-05	15:33:43	16:03:20	16:03:20:087	33	3	TNT_Think_CSp	TNT_Think_CSp	0	5	0	0	0	0	5000	5	Cue3.jpg	-16	0	0	0	0	0	0
10	2023-04-05	15:33:43	16:03:21	16:03:21:550	33	4	TNT_Think_CSp	Intrusion	0	1000	3000	0	81	1	1446	1	How <b>often</b> did you <b>think</b> about the <b>scene</b>?   <center><br><b>NEVER (1)    BRIEFLY (2)   OFTEN (3) </b>	-16	0	0	0	0	0	0
10	2023-04-05	15:33:43	16:03:24	16:03:24:591	34	1	TNT_Think_CSm	fixation	0	5	1500	0	0	1	1495	1	+	-8	0	0	0	0	0	0
10	2023-04-05	15:33:43	16:03:25	16:03:25:604	34	2	TNT_Think_CSm	Think	0	5	0	0	0	0	1000	1	THINK	-16	0	0	0	0	0	0
10	2023-04-05	15:33:43	16:03:30	16:03:30:621	34	3	TNT_Think_CSm	TNT_Think_CSm	0	5	0	0	0	0	5000	2	Cue25.jpg	-16	0	0	0	0	0	0
10	2023-04-05	15:33:43	16:03:31	16:03:31:326	34	4	TNT_Think_CSm	Intrusion	0	1000	3000	0	81	1	689	1	How <b>often</b> did you <b>think</b> about the <b>scene</b>?   <center><br><b>NEVER (1)    BRIEFLY (2)   OFTEN (3) </b>	-16	0	0	0	0	0	0
10	2023-04-05	15:33:43	16:03:35	16:03:35:125	35	1	TNT_NoThink_CSp	fixation	0	5	1500	0	0	1	1495	1	+	-9	0	0	0	0	0	0
10	2023-04-05	15:33:43	16:03:36	16:03:36:138	35	2	TNT_NoThink_CSp	NoThink	0	5	0	0	0	0	1000	1	DON'T THINK	-16	0	0	0	0	0	0
10	2023-04-05	15:33:43	16:03:41	16:03:41:155	35	3	TNT_NoThink_CSp	TNT_NoThink_CSp	0	5	0	0	0	0	5000	3	Cue27.jpg	-16	0	0	0	0	0	0
10	2023-04-05	15:33:43	16:03:41	16:03:41:790	35	4	TNT_NoThink_CSp	Intrusion	0	500	3000	0	80	1	619	1	How <b>often</b> did you <b>think</b> about the <b>scene</b>?   <center><br><b>NEVER (1)    BRIEFLY (2)   OFTEN (3) </b>	-16	0	0	0	0	0	0
10	2023-04-05	15:33:43	16:03:44	16:03:44:659	36	1	TNT_NoThink_CSp	fixation	0	5	500	0	0	1	495	1	+	-8	0	0	0	0	0	0
10	2023-04-05	15:33:43	16:03:45	16:03:45:672	36	2	TNT_NoThink_CSp	NoThink	0	5	0	0	0	0	1000	1	DON'T THINK	-16	0	0	0	0	0	0
10	2023-04-05	15:33:43	16:03:50	16:03:50:688	36	3	TNT_NoThink_CSp	TNT_NoThink_CSp	0	5	0	0	0	0	5000	6	Cue16.jpg	-16	0	0	0	0	0	0
10	2023-04-05	15:33:43	16:03:51	16:03:51:326	36	4	TNT_NoThink_CSp	Intrusion	0	1500	3000	0	80	1	621	1	How <b>often</b> did you <b>think</b> about the <b>scene</b>?   <center><br><b>NEVER (1)    BRIEFLY (2)   OFTEN (3) </b>	-16	0	0	0	0	0	0
10	2023-04-05	15:33:43	16:03:54	16:03:54:693	37	1	TNT_NoThink_CSm	fixation	0	5	1000	0	0	1	995	1	+	-16	0	0	0	0	0	0
10	2023-04-05	15:33:43	16:03:55	16:03:55:706	37	2	TNT_NoThink_CSm	NoThink	0	5	0	0	0	0	1000	1	DON'T THINK	-16	0	0	0	0	0	0
10	2023-04-05	15:33:43	16:04:00	16:04:00:722	37	3	TNT_NoThink_CSm	TNT_NoThink_CSm	0	5	0	0	0	0	5000	1	Cue7.jpg	-16	0	0	0	0	0	0
10	2023-04-05	15:33:43	16:04:01	16:04:01:198	37	4	TNT_NoThink_CSm	Intrusion	0	1500	3000	0	80	1	459	1	How <b>often</b> did you <b>think</b> about the <b>scene</b>?   <center><br><b>NEVER (1)    BRIEFLY (2)   OFTEN (3) </b>	-16	0	0	0	0	0	0
10	2023-04-05	15:33:43	16:04:04	16:04:04:226	38	1	TNT_Object_CSp	fixation	0	5	500	0	0	1	495	1	+	-9	0	0	0	0	0	0
10	2023-04-05	15:33:43	16:04:05	16:04:05:240	38	2	TNT_Object_CSp	Passive	0	5	0	0	0	0	1000	1	VIEW	-16	0	0	0	0	0	0
10	2023-04-05	15:33:43	16:04:10	16:04:10:256	38	3	TNT_Object_CSp	TNT_Object_CSp	0	1500	0	0	0	0	5000	1	Object3.jpg	-16	0	0	0	0	0	0
10	2023-04-05	15:33:43	16:04:13	16:04:13:256	39	1	TNT_NoThink_CSp	fixation	0	5	1500	0	0	1	1495	1	+	-9	0	0	0	0	0	0
10	2023-04-05	15:33:43	16:04:14	16:04:14:274	39	2	TNT_NoThink_CSp	NoThink	0	5	0	0	0	0	1000	1	DON'T THINK	-16	0	0	0	0	0	0
10	2023-04-05	15:33:43	16:04:19	16:04:19:290	39	3	TNT_NoThink_CSp	TNT_NoThink_CSp	0	5	0	0	0	0	5000	4	Cue2.jpg	-16	0	0	0	0	0	0
10	2023-04-05	15:33:43	16:04:19	16:04:19:870	39	4	TNT_NoThink_CSp	Intrusion	0	500	3000	0	80	1	563	1	How <b>often</b> did you <b>think</b> about the <b>scene</b>?   <center><br><b>NEVER (1)    BRIEFLY (2)   OFTEN (3) </b>	-16	0	0	0	0	0	0
10	2023-04-05	15:33:43	16:04:23	16:04:23:294	40	1	TNT_NoThink_CSm	fixation	0	5	1000	0	0	1	995	1	+	-16	0	0	0	0	0	0
10	2023-04-05	15:33:43	16:04:24	16:04:24:308	40	2	TNT_NoThink_CSm	NoThink	0	5	0	0	0	0	1000	1	DON'T THINK	-16	0	0	0	0	0	0
10	2023-04-05	15:33:43	16:04:29	16:04:29:324	40	3	TNT_NoThink_CSm	TNT_NoThink_CSm	0	5	0	0	0	0	5000	5	Cue14.jpg	-16	0	0	0	0	0	0
10	2023-04-05	15:33:43	16:04:30	16:04:30:174	40	4	TNT_NoThink_CSm	Intrusion	0	1000	3000	0	80	1	833	1	How <b>often</b> did you <b>think</b> about the <b>scene</b>?   <center><br><b>NEVER (1)    BRIEFLY (2)   OFTEN (3) </b>	-16	0	0	0	0	0	0
10	2023-04-05	15:33:43	16:04:32	16:04:32:828	41	1	TNT_Think_CSp	fixation	0	5	500	0	0	1	495	1	+	-8	0	0	0	0	0	0
10	2023-04-05	15:33:43	16:04:33	16:04:33:841	41	2	TNT_Think_CSp	Think	0	5	0	0	0	0	1000	1	THINK	-16	0	0	0	0	0	0
10	2023-04-05	15:33:43	16:04:38	16:04:38:858	41	3	TNT_Think_CSp	TNT_Think_CSp	0	5	0	0	0	0	5000	6	Cue36.jpg	-16	0	0	0	0	0	0
10	2023-04-05	15:33:43	16:04:39	16:04:39:550	41	4	TNT_Think_CSp	Intrusion	0	1500	3000	0	81	1	675	1	How <b>often</b> did you <b>think</b> about the <b>scene</b>?   <center><br><b>NEVER (1)    BRIEFLY (2)   OFTEN (3) </b>	-16	0	0	0	0	0	0
10	2023-04-05	15:33:43	16:04:42	16:04:42:862	42	1	TNT_Think_CSm	fixation	0	5	1000	0	0	1	995	1	+	-8	0	0	0	0	0	0
10	2023-04-05	15:33:43	16:04:43	16:04:43:875	42	2	TNT_Think_CSm	Think	0	5	0	0	0	0	1000	1	THINK	-16	0	0	0	0	0	0
10	2023-04-05	15:33:43	16:04:48	16:04:48:892	42	3	TNT_Think_CSm	TNT_Think_CSm	0	5	0	0	0	0	5000	6	Cue28.jpg	-16	0	0	0	0	0	0
10	2023-04-05	15:33:43	16:04:49	16:04:49:502	42	4	TNT_Think_CSm	Intrusion	0	500	3000	0	81	1	593	1	How <b>often</b> did you <b>think</b> about the <b>scene</b>?   <center><br><b>NEVER (1)    BRIEFLY (2)   OFTEN (3) </b>	-16	0	0	0	0	0	0
10	2023-04-05	15:33:43	16:04:53	16:04:53:396	43	1	TNT_Object_CSp	fixation	0	5	1500	0	0	1	1495	1	+	-4	0	0	0	0	0	0
10	2023-04-05	15:33:43	16:04:54	16:04:54:409	43	2	TNT_Object_CSp	Passive	0	5	0	0	0	0	1000	1	VIEW	-16	0	0	0	0	0	0
10	2023-04-05	15:33:43	16:04:59	16:04:59:426	43	3	TNT_Object_CSp	TNT_Object_CSp	0	1000	0	0	0	0	5000	2	Object5.jpg	-16	0	0	0	0	0	0
10	2023-04-05	15:33:43	16:05:01	16:05:01:925	44	1	TNT_Think_CSm	fixation	0	5	1500	0	0	1	1495	1	+	-8	0	0	0	0	0	0
10	2023-04-05	15:33:43	16:05:02	16:05:02:943	44	2	TNT_Think_CSm	Think	0	5	0	0	0	0	1000	1	THINK	-16	0	0	0	0	0	0
10	2023-04-05	15:33:43	16:05:07	16:05:07:960	44	3	TNT_Think_CSm	TNT_Think_CSm	0	5	0	0	0	0	5000	3	Cue18.jpg	-16	0	0	0	0	0	0
10	2023-04-05	15:33:43	16:05:08	16:05:08:654	44	4	TNT_Think_CSm	Intrusion	0	1000	3000	0	81	1	678	1	How <b>often</b> did you <b>think</b> about the <b>scene</b>?   <center><br><b>NEVER (1)    BRIEFLY (2)   OFTEN (3) </b>	-16	0	0	0	0	0	0
10	2023-04-05	15:33:43	16:05:11	16:05:11:464	45	1	TNT_Think_CSm	fixation	0	5	500	0	0	1	495	1	+	-9	0	0	0	0	0	0
10	2023-04-05	15:33:43	16:05:12	16:05:12:477	45	2	TNT_Think_CSm	Think	0	5	0	0	0	0	1000	1	THINK	-16	0	0	0	0	0	0
10	2023-04-05	15:33:43	16:05:17	16:05:17:494	45	3	TNT_Think_CSm	TNT_Think_CSm	0	5	0	0	0	0	5000	1	Cue32.jpg	-16	0	0	0	0	0	0
10	2023-04-05	15:33:43	16:05:18	16:05:18:030	45	4	TNT_Think_CSm	Intrusion	0	500	3000	0	81	1	520	1	How <b>often</b> did you <b>think</b> about the <b>scene</b>?   <center><br><b>NEVER (1)    BRIEFLY (2)   OFTEN (3) </b>	-16	0	0	0	0	0	0
10	2023-04-05	15:33:43	16:05:21	16:05:21:498	46	1	TNT_NoThink_CSm	fixation	0	5	1000	0	0	1	995	1	+	-8	0	0	0	0	0	0
10	2023-04-05	15:33:43	16:05:22	16:05:22:511	46	2	TNT_NoThink_CSm	NoThink	0	5	0	0	0	0	1000	1	DON'T THINK	-16	0	0	0	0	0	0
10	2023-04-05	15:33:43	16:05:27	16:05:27:527	46	3	TNT_NoThink_CSm	TNT_NoThink_CSm	0	5	0	0	0	0	5000	4	Cue15.jpg	-16	0	0	0	0	0	0
10	2023-04-05	15:33:43	16:05:28	16:05:28:062	46	4	TNT_NoThink_CSm	Intrusion	0	1000	3000	0	80	1	518	1	How <b>often</b> did you <b>think</b> about the <b>scene</b>?   <center><br><b>NEVER (1)    BRIEFLY (2)   OFTEN (3) </b>	-16	0	0	0	0	0	0
10	2023-04-05	15:33:43	16:05:31	16:05:31:031	47	1	TNT_Object_CSm	fixation	0	5	500	0	0	1	495	1	+	-1	0	0	0	0	0	0
10	2023-04-05	15:33:43	16:05:32	16:05:32:045	47	2	TNT_Object_CSm	Passive	0	5	0	0	0	0	1000	1	VIEW	-16	0	0	0	0	0	0
10	2023-04-05	15:33:43	16:05:37	16:05:37:061	47	3	TNT_Object_CSm	TNT_Object_CSm	0	500	0	0	0	0	5000	1	Object8.jpg	-16	0	0	0	0	0	0
10	2023-04-05	15:33:43	16:05:38	16:05:38:561	48	1	TNT_NoThink_CSp	fixation	0	5	1000	0	0	1	995	1	+	-3	0	0	0	0	0	0
10	2023-04-05	15:33:43	16:05:39	16:05:39:579	48	2	TNT_NoThink_CSp	NoThink	0	5	0	0	0	0	1000	1	DON'T THINK	-16	0	0	0	0	0	0
10	2023-04-05	15:33:43	16:05:44	16:05:44:595	48	3	TNT_NoThink_CSp	TNT_NoThink_CSp	0	5	0	0	0	0	5000	1	Cue6.jpg	-16	0	0	0	0	0	0
10	2023-04-05	15:33:43	16:05:45	16:05:45:758	48	4	TNT_NoThink_CSp	Intrusion	0	1500	3000	0	80	1	1146	1	How <b>often</b> did you <b>think</b> about the <b>scene</b>?   <center><br><b>NEVER (1)    BRIEFLY (2)   OFTEN (3) </b>	-16	0	0	0	0	0	0
10	2023-04-05	15:33:43	16:05:49	16:05:49:100	49	1	TNT_Think_CSp	fixation	0	5	1500	0	0	1	1495	1	+	-16	0	0	0	0	0	0
10	2023-04-05	15:33:43	16:05:50	16:05:50:112	49	2	TNT_Think_CSp	Think	0	5	0	0	0	0	1000	1	THINK	-16	0	0	0	0	0	0
10	2023-04-05	15:33:43	16:05:55	16:05:55:129	49	3	TNT_Think_CSp	TNT_Think_CSp	0	5	0	0	0	0	5000	3	Cue13.jpg	-16	0	0	0	0	0	0
10	2023-04-05	15:33:43	16:05:56	16:05:56:222	49	4	TNT_Think_CSp	Intrusion	0	1000	3000	0	81	1	1075	1	How <b>often</b> did you <b>think</b> about the <b>scene</b>?   <center><br><b>NEVER (1)    BRIEFLY (2)   OFTEN (3) </b>	-16	0	0	0	0	0	0
10	2023-04-05	15:33:43	16:05:59	16:05:59:133	50	1	TNT_NoThink_CSm	fixation	0	5	1000	0	0	1	995	1	+	-8	0	0	0	0	0	0
10	2023-04-05	15:33:43	16:06:00	16:06:00:147	50	2	TNT_NoThink_CSm	NoThink	0	5	0	0	0	0	1000	1	DON'T THINK	-16	0	0	0	0	0	0
10	2023-04-05	15:33:43	16:06:05	16:06:05:163	50	3	TNT_NoThink_CSm	TNT_NoThink_CSm	0	5	0	0	0	0	5000	2	Cue22.jpg	-16	0	0	0	0	0	0
10	2023-04-05	15:33:43	16:06:06	16:06:06:062	50	4	TNT_NoThink_CSm	Intrusion	0	500	3000	0	80	1	882	1	How <b>often</b> did you <b>think</b> about the <b>scene</b>?   <center><br><b>NEVER (1)    BRIEFLY (2)   OFTEN (3) </b>	-16	0	0	0	0	0	0
10	2023-04-05	15:33:43	16:06:09	16:06:09:667	51	1	TNT_Think_CSp	fixation	0	5	1500	0	0	1	1495	1	+	-8	0	0	0	0	0	0
10	2023-04-05	15:33:43	16:06:10	16:06:10:680	51	2	TNT_Think_CSp	Think	0	5	0	0	0	0	1000	1	THINK	-16	0	0	0	0	0	0
10	2023-04-05	15:33:43	16:06:15	16:06:15:697	51	3	TNT_Think_CSp	TNT_Think_CSp	0	5	0	0	0	0	5000	2	Cue5.jpg	-16	0	0	0	0	0	0
10	2023-04-05	15:33:43	16:06:16	16:06:16:638	51	4	TNT_Think_CSp	Intrusion	0	1500	3000	0	81	1	923	1	How <b>often</b> did you <b>think</b> about the <b>scene</b>?   <center><br><b>NEVER (1)    BRIEFLY (2)   OFTEN (3) </b>	-16	0	0	0	0	0	0
10	2023-04-05	15:33:43	16:06:19	16:06:19:201	52	1	TNT_NoThink_CSp	fixation	0	5	500	0	0	1	495	1	+	-9	0	0	0	0	0	0
10	2023-04-05	15:33:43	16:06:20	16:06:20:214	52	2	TNT_NoThink_CSp	NoThink	0	5	0	0	0	0	1000	1	DON'T THINK	-16	0	0	0	0	0	0
10	2023-04-05	15:33:43	16:06:25	16:06:25:231	52	3	TNT_NoThink_CSp	TNT_NoThink_CSp	0	5	0	0	0	0	5000	2	Cue4.jpg	-16	0	0	0	0	0	0
10	2023-04-05	15:33:43	16:06:26	16:06:26:030	52	4	TNT_NoThink_CSp	Intrusion	0	500	3000	0	80	1	782	1	How <b>often</b> did you <b>think</b> about the <b>scene</b>?   <center><br><b>NEVER (1)    BRIEFLY (2)   OFTEN (3) </b>	-16	0	0	0	0	0	0
10	2023-04-05	15:33:43	16:06:28	16:06:28:735	53	1	TNT_Think_CSp	fixation	0	5	500	0	0	1	495	1	+	-9	0	0	0	0	0	0
10	2023-04-05	15:33:43	16:06:29	16:06:29:748	53	2	TNT_Think_CSp	Think	0	5	0	0	0	0	1000	1	THINK	-16	0	0	0	0	0	0
10	2023-04-05	15:33:43	16:06:34	16:06:34:765	53	3	TNT_Think_CSp	TNT_Think_CSp	0	5	0	0	0	0	5000	4	Cue12.jpg	-16	0	0	0	0	0	0
10	2023-04-05	15:33:43	16:06:36	16:06:36:030	53	4	TNT_Think_CSp	Intrusion	0	1000	3000	0	81	1	1248	1	How <b>often</b> did you <b>think</b> about the <b>scene</b>?   <center><br><b>NEVER (1)    BRIEFLY (2)   OFTEN (3) </b>	-16	0	0	0	0	0	0
10	2023-04-05	15:33:43	16:06:39	16:06:39:268	54	1	TNT_Object_CSm	fixation	0	5	1500	0	0	1	1495	1	+	-9	0	0	0	0	0	0
10	2023-04-05	15:33:43	16:06:40	16:06:40:282	54	2	TNT_Object_CSm	Passive	0	5	0	0	0	0	1000	1	VIEW	-16	0	0	0	0	0	0
10	2023-04-05	15:33:43	16:06:45	16:06:45:299	54	3	TNT_Object_CSm	TNT_Object_CSm	0	1500	0	0	0	0	5000	3	Object4.jpg	-16	0	0	0	0	0	0
10	2023-04-05	15:33:43	16:06:47	16:06:47:797	55	1	TNT_Object_CSm	fixation	0	5	1000	0	0	1	995	1	+	-9	0	0	0	0	0	0
10	2023-04-05	15:33:43	16:06:48	16:06:48:816	55	2	TNT_Object_CSm	Passive	0	5	0	0	0	0	1000	1	VIEW	-16	0	0	0	0	0	0
10	2023-04-05	15:33:43	16:06:53	16:06:53:833	55	3	TNT_Object_CSm	TNT_Object_CSm	0	1000	0	0	0	0	5000	4	Object7.jpg	-16	0	0	0	0	0	0
10	2023-04-05	15:33:43	16:06:55	16:06:55:332	56	1	TNT_NoThink_CSm	fixation	0	5	500	0	0	1	495	1	+	-5	0	0	0	0	0	0
10	2023-04-05	15:33:43	16:06:56	16:06:56:350	56	2	TNT_NoThink_CSm	NoThink	0	5	0	0	0	0	1000	1	DON'T THINK	-16	0	0	0	0	0	0
10	2023-04-05	15:33:43	16:07:01	16:07:01:366	56	3	TNT_NoThink_CSm	TNT_NoThink_CSm	0	5	0	0	0	0	5000	3	Cue24.jpg	-16	0	0	0	0	0	0
10	2023-04-05	15:33:43	16:07:02	16:07:02:046	56	4	TNT_NoThink_CSm	Intrusion	0	1500	3000	0	80	1	662	1	How <b>often</b> did you <b>think</b> about the <b>scene</b>?   <center><br><b>NEVER (1)    BRIEFLY (2)   OFTEN (3) </b>	-16	0	0	0	0	0	0
10	2023-04-05	15:33:43	16:07:05	16:07:05:871	57	1	TNT_Think_CSp	fixation	0	5	1500	0	0	1	1495	1	+	-16	0	0	0	0	0	0
10	2023-04-05	15:33:43	16:07:06	16:07:06:884	57	2	TNT_Think_CSp	Think	0	5	0	0	0	0	1000	1	THINK	-16	0	0	0	0	0	0
10	2023-04-05	15:33:43	16:07:11	16:07:11:901	57	3	TNT_Think_CSp	TNT_Think_CSp	0	5	0	0	0	0	5000	5	Cue3.jpg	-16	0	0	0	0	0	0
10	2023-04-05	15:33:43	16:07:13	16:07:13:054	57	4	TNT_Think_CSp	Intrusion	0	500	3000	0	81	1	1136	1	How <b>often</b> did you <b>think</b> about the <b>scene</b>?   <center><br><b>NEVER (1)    BRIEFLY (2)   OFTEN (3) </b>	-16	0	0	0	0	0	0
10	2023-04-05	15:33:43	16:07:15	16:07:15:905	58	1	TNT_Object_CSp	fixation	0	5	1000	0	0	1	995	1	+	-16	0	0	0	0	0	0
10	2023-04-05	15:33:43	16:07:16	16:07:16:917	58	2	TNT_Object_CSp	Passive	0	5	0	0	0	0	1000	1	VIEW	-16	0	0	0	0	0	0
10	2023-04-05	15:33:43	16:07:21	16:07:21:934	58	3	TNT_Object_CSp	TNT_Object_CSp	0	1000	0	0	0	0	5000	3	Object6.jpg	-16	0	0	0	0	0	0
10	2023-04-05	15:33:43	16:07:23	16:07:23:434	59	1	TNT_Think_CSm	fixation	0	5	500	0	0	1	495	1	+	-9	0	0	0	0	0	0
10	2023-04-05	15:33:43	16:07:24	16:07:24:451	59	2	TNT_Think_CSm	Think	0	5	0	0	0	0	1000	1	THINK	-16	0	0	0	0	0	0
10	2023-04-05	15:33:43	16:07:29	16:07:29:468	59	3	TNT_Think_CSm	TNT_Think_CSm	0	5	0	0	0	0	5000	4	Cue31.jpg	-16	0	0	0	0	0	0
10	2023-04-05	15:33:43	16:07:29	16:07:29:982	59	4	TNT_Think_CSm	Intrusion	0	1000	3000	0	81	1	496	1	How <b>often</b> did you <b>think</b> about the <b>scene</b>?   <center><br><b>NEVER (1)    BRIEFLY (2)   OFTEN (3) </b>	-16	0	0	0	0	0	0
10	2023-04-05	15:33:43	16:07:33	16:07:33:472	60	1	TNT_NoThink_CSp	fixation	0	5	1000	0	0	1	995	1	+	-16	0	0	0	0	0	0
10	2023-04-05	15:33:43	16:07:34	16:07:34:485	60	2	TNT_NoThink_CSp	NoThink	0	5	0	0	0	0	1000	1	DON'T THINK	-16	0	0	0	0	0	0
10	2023-04-05	15:33:43	16:07:39	16:07:39:502	60	3	TNT_NoThink_CSp	TNT_NoThink_CSp	0	5	0	0	0	0	5000	5	Cue29.jpg	-16	0	0	0	0	0	0
10	2023-04-05	15:33:43	16:07:40	16:07:40:222	60	4	TNT_NoThink_CSp	Intrusion	0	1500	3000	0	80	1	702	1	How <b>often</b> did you <b>think</b> about the <b>scene</b>?   <center><br><b>NEVER (1)    BRIEFLY (2)   OFTEN (3) </b>	-16	0	0	0	0	0	0
10	2023-04-05	15:33:43	16:07:44	16:07:44:06	61	1	TNT_Think_CSm	fixation	0	5	1500	0	0	1	1495	1	+	-9	0	0	0	0	0	0
10	2023-04-05	15:33:43	16:07:45	16:07:45:019	61	2	TNT_Think_CSm	Think	0	5	0	0	0	0	1000	1	THINK	-16	0	0	0	0	0	0
10	2023-04-05	15:33:43	16:07:50	16:07:50:036	61	3	TNT_Think_CSm	TNT_Think_CSm	0	5	0	0	0	0	5000	5	Cue26.jpg	-16	0	0	0	0	0	0
10	2023-04-05	15:33:43	16:07:51	16:07:51:06	61	4	TNT_Think_CSm	Intrusion	0	1000	3000	0	81	1	952	1	How <b>often</b> did you <b>think</b> about the <b>scene</b>?   <center><br><b>NEVER (1)    BRIEFLY (2)   OFTEN (3) </b>	-16	0	0	0	0	0	0
10	2023-04-05	15:33:43	16:07:54	16:07:54:540	62	1	TNT_Object_CSp	fixation	0	5	1500	0	0	1	1495	1	+	-9	0	0	0	0	0	0
10	2023-04-05	15:33:43	16:07:55	16:07:55:553	62	2	TNT_Object_CSp	Passive	0	5	0	0	0	0	1000	1	VIEW	-16	0	0	0	0	0	0
10	2023-04-05	15:33:43	16:08:00	16:08:00:570	62	3	TNT_Object_CSp	TNT_Object_CSp	0	1500	0	0	0	0	5000	4	Object2.jpg	-16	0	0	0	0	0	0
10	2023-04-05	15:33:43	16:08:03	16:08:03:069	63	1	TNT_NoThink_CSm	fixation	0	5	1000	0	0	1	995	1	+	-8	0	0	0	0	0	0
10	2023-04-05	15:33:43	16:08:04	16:08:04:087	63	2	TNT_NoThink_CSm	NoThink	0	5	0	0	0	0	1000	1	DON'T THINK	-16	0	0	0	0	0	0
10	2023-04-05	15:33:43	16:08:09	16:08:09:104	63	3	TNT_NoThink_CSm	TNT_NoThink_CSm	0	5	0	0	0	0	5000	6	Cue8.jpg	-16	0	0	0	0	0	0
10	2023-04-05	15:33:43	16:08:09	16:08:09:886	63	4	TNT_NoThink_CSm	Intrusion	0	500	3000	0	80	1	765	1	How <b>often</b> did you <b>think</b> about the <b>scene</b>?   <center><br><b>NEVER (1)    BRIEFLY (2)   OFTEN (3) </b>	-16	0	0	0	0	0	0
10	2023-04-05	15:33:43	16:08:12	16:08:12:607	64	1	TNT_Object_CSm	fixation	0	5	500	0	0	1	495	1	+	-2	0	0	0	0	0	0
10	2023-04-05	15:33:43	16:08:13	16:08:13:621	64	2	TNT_Object_CSm	Passive	0	5	0	0	0	0	1000	1	VIEW	-16	0	0	0	0	0	0
10	2023-04-05	15:33:43	16:08:18	16:08:18:638	64	3	TNT_Object_CSm	TNT_Object_CSm	0	1500	0	0	0	0	5000	2	Object1.jpg	-16	0	0	0	0	0	0
10	2023-04-05	15:33:43	16:08:21	16:08:21:137	65	1	TNT_Think_CSp	fixation	0	5	1000	0	0	1	995	1	+	-8	0	0	0	0	0	0
10	2023-04-05	15:33:43	16:08:22	16:08:22:155	65	2	TNT_Think_CSp	Think	0	5	0	0	0	0	1000	1	THINK	-16	0	0	0	0	0	0
10	2023-04-05	15:33:43	16:08:27	16:08:27:172	65	3	TNT_Think_CSp	TNT_Think_CSp	0	5	0	0	0	0	5000	1	Cue19.jpg	-16	0	0	0	0	0	0
10	2023-04-05	15:33:43	16:08:28	16:08:28:206	65	4	TNT_Think_CSp	Intrusion	0	1500	3000	0	81	1	1017	1	How <b>often</b> did you <b>think</b> about the <b>scene</b>?   <center><br><b>NEVER (1)    BRIEFLY (2)   OFTEN (3) </b>	-16	0	0	0	0	0	0
10	2023-04-05	15:33:43	16:08:31	16:08:31:676	66	1	Expectancy_rating	fixation	0	5	1500	0	0	1	1495	1	+	-16	0	0	0	0	0	0
10	2023-04-05	15:33:43	16:08:47	16:08:47:537	66	2	Expectancy_rating	expectancy_rating	0	1500	0	0	90	0	15813	1	When you saw the <b>object</b>,   to what <b>degree (0-100%)</b> did you expect the <b>unpleasant sound to occur</b>?	-16	34	Cue34.jpg	-16	0	0	0
10	2023-04-05	15:33:43	16:08:49	16:08:49:524	67	1	Expectancy_rating	fixation	0	5	500	0	0	1	495	1	+	-8	0	0	0	0	0	0
10	2023-04-05	15:33:43	16:08:52	16:08:52:971	67	2	Expectancy_rating	expectancy_rating	0	500	0	0	10	0	3394	1	When you saw the <b>object</b>,   to what <b>degree (0-100%)</b> did you expect the <b>unpleasant sound to occur</b>?	-16	33	Cue33.jpg	-16	0	0	0
10	2023-04-05	15:33:43	16:08:53	16:08:53:958	68	1	Expectancy_rating	fixation	0	5	500	0	0	1	495	1	+	-9	0	0	0	0	0	0
10	2023-04-05	15:33:43	16:08:57	16:08:57:405	68	2	Expectancy_rating	expectancy_rating	0	1000	0	0	90	0	3425	1	When you saw the <b>object</b>,   to what <b>degree (0-100%)</b> did you expect the <b>unpleasant sound to occur</b>?	-16	11	Cue11.jpg	-16	0	0	0
10	2023-04-05	15:33:43	16:08:59	16:08:59:908	69	1	Expectancy_rating	fixation	0	5	1500	0	0	1	1495	1	+	-8	0	0	0	0	0	0
10	2023-04-05	15:33:43	16:09:03	16:09:03:039	69	2	Expectancy_rating	expectancy_rating	0	1500	0	0	70	0	3107	1	When you saw the <b>object</b>,   to what <b>degree (0-100%)</b> did you expect the <b>unpleasant sound to occur</b>?	-16	6	Cue6.jpg	-16	0	0	0
10	2023-04-05	15:33:43	16:09:05	16:09:05:541	70	1	Expectancy_rating	fixation	0	5	1000	0	0	1	995	1	+	-3	0	0	0	0	0	0
10	2023-04-05	15:33:43	16:09:08	16:09:08:072	70	2	Expectancy_rating	expectancy_rating	0	1000	0	0	100	0	2481	1	When you saw the <b>object</b>,   to what <b>degree (0-100%)</b> did you expect the <b>unpleasant sound to occur</b>?	-16	4	Cue4.jpg	-16	0	0	0
10	2023-04-05	15:33:43	16:09:10	16:09:10:058	71	1	Expectancy_rating	fixation	0	5	1000	0	0	1	995	1	+	-8	0	0	0	0	0	0
10	2023-04-05	15:33:43	16:09:12	16:09:12:472	71	2	Expectancy_rating	expectancy_rating	0	500	0	0	99	0	2364	1	When you saw the <b>object</b>,   to what <b>degree (0-100%)</b> did you expect the <b>unpleasant sound to occur</b>?	-16	35	Cue35.jpg	-16	0	0	0
10	2023-04-05	15:33:43	16:09:14	16:09:14:459	72	1	Expectancy_rating	fixation	0	5	1500	0	0	1	1495	1	+	-8	0	0	0	0	0	0
10	2023-04-05	15:33:43	16:09:19	16:09:19:873	72	2	Expectancy_rating	expectancy_rating	0	1000	0	0	60	0	5364	1	When you saw the <b>object</b>,   to what <b>degree (0-100%)</b> did you expect the <b>unpleasant sound to occur</b>?	-16	46	Object6.jpg	-16	0	0	0
10	2023-04-05	15:33:43	16:09:21	16:09:21:359	73	1	Expectancy_rating	fixation	0	5	500	0	0	1	495	1	+	-9	0	0	0	0	0	0
10	2023-04-05	15:33:43	16:09:23	16:09:23:790	73	2	Expectancy_rating	expectancy_rating	0	1500	0	0	96	0	2383	1	When you saw the <b>object</b>,   to what <b>degree (0-100%)</b> did you expect the <b>unpleasant sound to occur</b>?	-16	45	Object5.jpg	-16	0	0	0
10	2023-04-05	15:33:43	16:09:25	16:09:25:776	74	1	Expectancy_rating	fixation	0	5	500	0	0	1	495	1	+	-6	0	0	0	0	0	0
10	2023-04-05	15:33:43	16:09:28	16:09:28:840	74	2	Expectancy_rating	expectancy_rating	0	500	0	0	50	0	3038	1	When you saw the <b>object</b>,   to what <b>degree (0-100%)</b> did you expect the <b>unpleasant sound to occur</b>?	-16	44	Object4.jpg	-16	0	0	0
10	2023-04-05	15:33:43	16:09:30	16:09:30:343	75	1	Expectancy_rating	fixation	0	5	1000	0	0	1	995	1	+	-8	0	0	0	0	0	0
10	2023-04-05	15:33:43	16:09:33	16:09:33:657	75	2	Expectancy_rating	expectancy_rating	0	1500	0	0	30	0	3287	1	When you saw the <b>object</b>,   to what <b>degree (0-100%)</b> did you expect the <b>unpleasant sound to occur</b>?	-16	14	Cue14.jpg	-16	0	0	0
10	2023-04-05	15:33:43	16:09:36	16:09:36:660	76	1	Expectancy_rating	fixation	0	5	1500	0	0	1	1495	1	+	-8	0	0	0	0	0	0
10	2023-04-05	15:33:43	16:09:39	16:09:39:607	76	2	Expectancy_rating	expectancy_rating	0	500	0	0	20	0	2898	1	When you saw the <b>object</b>,   to what <b>degree (0-100%)</b> did you expect the <b>unpleasant sound to occur</b>?	-16	39	Cue39.jpg	-16	0	0	0
10	2023-04-05	15:33:43	16:09:40	16:09:40:594	77	1	Expectancy_rating	fixation	0	5	500	0	0	1	495	1	+	-9	0	0	0	0	0	0
10	2023-04-05	15:33:43	16:09:42	16:09:42:741	77	2	Expectancy_rating	expectancy_rating	0	1000	0	0	98	0	2101	1	When you saw the <b>object</b>,   to what <b>degree (0-100%)</b> did you expect the <b>unpleasant sound to occur</b>?	-16	43	Object3.jpg	-16	0	0	0
10	2023-04-05	15:33:43	16:09:45	16:09:45:227	78	1	Expectancy_rating	fixation	0	5	1500	0	0	1	1495	1	+	-8	0	0	0	0	0	0
10	2023-04-05	15:33:43	16:09:47	16:09:47:758	78	2	Expectancy_rating	expectancy_rating	0	1500	0	0	70	0	2507	1	When you saw the <b>object</b>,   to what <b>degree (0-100%)</b> did you expect the <b>unpleasant sound to occur</b>?	-16	10	Cue10.jpg	-16	0	0	0
10	2023-04-05	15:33:43	16:09:50	16:09:50:261	79	1	Expectancy_rating	fixation	0	5	1000	0	0	1	995	1	+	-8	0	0	0	0	0	0
10	2023-04-05	15:33:43	16:09:53	16:09:53:059	79	2	Expectancy_rating	expectancy_rating	0	1000	0	0	66	0	2769	1	When you saw the <b>object</b>,   to what <b>degree (0-100%)</b> did you expect the <b>unpleasant sound to occur</b>?	-16	40	Cue40.jpg	-16	0	0	0
10	2023-04-05	15:33:43	16:09:55	16:09:55:561	80	1	Expectancy_rating	fixation	0	5	1500	0	0	1	1495	1	+	-4	0	0	0	0	0	0
10	2023-04-05	15:33:43	16:09:57	16:09:57:975	80	2	Expectancy_rating	expectancy_rating	0	500	0	0	87	0	2389	1	When you saw the <b>object</b>,   to what <b>degree (0-100%)</b> did you expect the <b>unpleasant sound to occur</b>?	-16	23	Cue23.jpg	-16	0	0	0
10	2023-04-05	15:33:43	16:09:59	16:09:59:478	81	1	Expectancy_rating	fixation	0	5	1000	0	0	1	995	1	+	-2	0	0	0	0	0	0
10	2023-04-05	15:33:43	16:10:03	16:10:03:308	81	2	Expectancy_rating	expectancy_rating	0	1500	0	0	20	0	3784	1	When you saw the <b>object</b>,   to what <b>degree (0-100%)</b> did you expect the <b>unpleasant sound to occur</b>?	-16	31	Cue31.jpg	-16	0	0	0
10	2023-04-05	15:33:43	16:10:05	16:10:05:295	82	1	Expectancy_rating	fixation	0	5	500	0	0	1	495	1	+	-8	0	0	0	0	0	0
10	2023-04-05	15:33:43	16:10:09	16:10:09:759	82	2	Expectancy_rating	expectancy_rating	0	500	0	0	60	0	4434	1	When you saw the <b>object</b>,   to what <b>degree (0-100%)</b> did you expect the <b>unpleasant sound to occur</b>?	-16	2	Cue2.jpg	-16	0	0	0
10	2023-04-05	15:33:43	16:10:10	16:10:10:762	83	1	Expectancy_rating	fixation	0	5	500	0	0	1	495	1	+	-9	0	0	0	0	0	0
10	2023-04-05	15:33:43	16:10:13	16:10:13:892	83	2	Expectancy_rating	expectancy_rating	0	1000	0	0	40	0	3108	1	When you saw the <b>object</b>,   to what <b>degree (0-100%)</b> did you expect the <b>unpleasant sound to occur</b>?	-16	29	Cue29.jpg	-16	0	0	0
10	2023-04-05	15:33:43	16:10:16	16:10:16:395	84	1	Expectancy_rating	fixation	0	5	1500	0	0	1	1495	1	+	-9	0	0	0	0	0	0
10	2023-04-05	15:33:43	16:10:19	16:10:19:09	84	2	Expectancy_rating	expectancy_rating	0	1500	0	0	69	0	2563	1	When you saw the <b>object</b>,   to what <b>degree (0-100%)</b> did you expect the <b>unpleasant sound to occur</b>?	-16	16	Cue16.jpg	-16	0	0	0
10	2023-04-05	15:33:43	16:10:21	16:10:21:494	85	1	Expectancy_rating	fixation	0	5	1000	0	0	1	995	1	+	-9	0	0	0	0	0	0
10	2023-04-05	15:33:43	16:10:24	16:10:24:160	85	2	Expectancy_rating	expectancy_rating	0	1000	0	0	30	0	2614	1	When you saw the <b>object</b>,   to what <b>degree (0-100%)</b> did you expect the <b>unpleasant sound to occur</b>?	-16	17	Cue17.jpg	-16	0	0	0
10	2023-04-05	15:33:43	16:10:26	16:10:26:646	86	1	Expectancy_rating	fixation	0	5	1500	0	0	1	1495	1	+	-8	0	0	0	0	0	0
10	2023-04-05	15:33:43	16:10:29	16:10:29:978	86	2	Expectancy_rating	expectancy_rating	0	500	0	0	30	0	3304	1	When you saw the <b>object</b>,   to what <b>degree (0-100%)</b> did you expect the <b>unpleasant sound to occur</b>?	-16	18	Cue18.jpg	-16	0	0	0
10	2023-04-05	15:33:43	16:10:30	16:10:30:980	87	1	Expectancy_rating	fixation	0	5	500	0	0	1	495	1	+	-9	0	0	0	0	0	0
10	2023-04-05	15:33:43	16:10:35	16:10:35:628	87	2	Expectancy_rating	expectancy_rating	0	1000	0	0	40	0	4618	1	When you saw the <b>object</b>,   to what <b>degree (0-100%)</b> did you expect the <b>unpleasant sound to occur</b>?	-16	37	Cue37.jpg	-16	0	0	0
10	2023-04-05	15:33:43	16:10:37	16:10:37:631	88	1	Expectancy_rating	fixation	0	5	1000	0	0	1	995	1	+	-8	0	0	0	0	0	0
10	2023-04-05	15:33:43	16:10:40	16:10:40:711	88	2	Expectancy_rating	expectancy_rating	0	500	0	0	20	0	3032	1	When you saw the <b>object</b>,   to what <b>degree (0-100%)</b> did you expect the <b>unpleasant sound to occur</b>?	-16	41	Object1.jpg	-16	0	0	0
10	2023-04-05	15:33:43	16:10:42	16:10:42:697	89	1	Expectancy_rating	fixation	0	5	1500	0	0	1	1495	1	+	-8	0	0	0	0	0	0
10	2023-04-05	15:33:43	16:10:45	16:10:45:744	89	2	Expectancy_rating	expectancy_rating	0	1500	0	0	30	0	2997	1	When you saw the <b>object</b>,   to what <b>degree (0-100%)</b> did you expect the <b>unpleasant sound to occur</b>?	-16	47	Object7.jpg	-16	0	0	0
10	2023-04-05	15:33:43	16:10:48	16:10:48:231	90	1	Expectancy_rating	fixation	0	5	1000	0	0	1	995	1	+	-9	0	0	0	0	0	0
10	2023-04-05	15:33:43	16:10:52	16:10:52:595	90	2	Expectancy_rating	expectancy_rating	0	1000	0	0	74	0	4311	1	When you saw the <b>object</b>,   to what <b>degree (0-100%)</b> did you expect the <b>unpleasant sound to occur</b>?	-16	19	Cue19.jpg	-16	0	0	0
10	2023-04-05	15:33:43	16:10:54	16:10:54:081	91	1	Expectancy_rating	fixation	0	5	500	0	0	1	495	1	+	-9	0	0	0	0	0	0
10	2023-04-05	15:33:43	16:10:57	16:10:57:662	91	2	Expectancy_rating	expectancy_rating	0	1500	0	0	64	0	3533	1	When you saw the <b>object</b>,   to what <b>degree (0-100%)</b> did you expect the <b>unpleasant sound to occur</b>?	-16	38	Cue38.jpg	-16	0	0	0
10	2023-04-05	15:33:43	16:10:59	16:10:59:647	92	1	Expectancy_rating	fixation	0	5	500	0	0	1	495	1	+	-8	0	0	0	0	0	0
10	2023-04-05	15:33:43	16:11:03	16:11:03:013	92	2	Expectancy_rating	expectancy_rating	0	500	0	0	10	0	3342	1	When you saw the <b>object</b>,   to what <b>degree (0-100%)</b> did you expect the <b>unpleasant sound to occur</b>?	-16	20	Cue20.jpg	-16	0	0	0
10	2023-04-05	15:33:43	16:11:04	16:11:04:514	93	1	Expectancy_rating	fixation	0	5	1000	0	0	1	995	1	+	-8	0	0	0	0	0	0
10	2023-04-05	15:33:43	16:11:07	16:11:07:396	93	2	Expectancy_rating	expectancy_rating	0	500	0	0	20	0	2859	1	When you saw the <b>object</b>,   to what <b>degree (0-100%)</b> did you expect the <b>unpleasant sound to occur</b>?	-16	8	Cue8.jpg	-16	0	0	0
10	2023-04-05	15:33:43	16:11:09	16:11:09:399	94	1	Expectancy_rating	fixation	0	5	1500	0	0	1	1495	1	+	-7	0	0	0	0	0	0
10	2023-04-05	15:33:43	16:11:14	16:11:14:596	94	2	Expectancy_rating	expectancy_rating	0	1000	0	0	20	0	5151	1	When you saw the <b>object</b>,   to what <b>degree (0-100%)</b> did you expect the <b>unpleasant sound to occur</b>?	-16	1	Cue1.jpg	-16	0	0	0
10	2023-04-05	15:33:43	16:11:16	16:11:16:582	95	1	Expectancy_rating	fixation	0	5	1000	0	0	1	995	1	+	-8	0	0	0	0	0	0
10	2023-04-05	15:33:43	16:11:19	16:11:19:096	95	2	Expectancy_rating	expectancy_rating	0	1500	0	0	50	0	2464	1	When you saw the <b>object</b>,   to what <b>degree (0-100%)</b> did you expect the <b>unpleasant sound to occur</b>?	-16	13	Cue13.jpg	-16	0	0	0
10	2023-04-05	15:33:43	16:11:22	16:11:22:079	96	1	Expectancy_rating	fixation	0	5	1500	0	0	1	1495	1	+	-15	0	0	0	0	0	0
10	2023-04-05	15:33:43	16:11:24	16:11:24:947	96	2	Expectancy_rating	expectancy_rating	0	1500	0	0	90	0	2835	1	When you saw the <b>object</b>,   to what <b>degree (0-100%)</b> did you expect the <b>unpleasant sound to occur</b>?	-12	27	Cue27.jpg	-12	0	0	0
10	2023-04-05	15:33:43	16:11:26	16:11:26:946	97	1	Expectancy_rating	fixation	0	5	500	0	0	1	495	1	+	-15	0	0	0	0	0	0
10	2023-04-05	15:33:43	16:11:29	16:11:29:280	97	2	Expectancy_rating	expectancy_rating	0	1000	0	0	77	0	2312	1	When you saw the <b>object</b>,   to what <b>degree (0-100%)</b> did you expect the <b>unpleasant sound to occur</b>?	-16	3	Cue3.jpg	-16	0	0	0
10	2023-04-05	15:33:43	16:11:31	16:11:31:279	98	1	Expectancy_rating	fixation	0	5	1000	0	0	1	995	1	+	-15	0	0	0	0	0	0
10	2023-04-05	15:33:43	16:11:33	16:11:33:731	98	2	Expectancy_rating	expectancy_rating	0	500	0	0	70	0	2427	1	When you saw the <b>object</b>,   to what <b>degree (0-100%)</b> did you expect the <b>unpleasant sound to occur</b>?	-9	5	Cue5.jpg	-9	0	0	0
10	2023-04-05	15:33:43	16:11:35	16:11:35:730	99	1	Expectancy_rating	fixation	0	5	1500	0	0	1	1495	1	+	-15	0	0	0	0	0	0
10	2023-04-05	15:33:43	16:11:38	16:11:38:248	99	2	Expectancy_rating	expectancy_rating	0	1500	0	0	10	0	2496	1	When you saw the <b>object</b>,   to what <b>degree (0-100%)</b> did you expect the <b>unpleasant sound to occur</b>?	-12	48	Object8.jpg	-12	0	0	0
10	2023-04-05	15:33:43	16:11:40	16:11:40:247	100	1	Expectancy_rating	fixation	0	5	500	0	0	1	495	1	+	-15	0	0	0	0	0	0
10	2023-04-05	15:33:43	16:11:43	16:11:43:781	100	2	Expectancy_rating	expectancy_rating	0	500	0	0	25	0	3484	1	When you saw the <b>object</b>,   to what <b>degree (0-100%)</b> did you expect the <b>unpleasant sound to occur</b>?	-16	24	Cue24.jpg	-16	0	0	0
10	2023-04-05	15:33:43	16:11:45	16:11:45:264	101	1	Expectancy_rating	fixation	0	5	1000	0	0	1	995	1	+	-15	0	0	0	0	0	0
10	2023-04-05	15:33:43	16:11:49	16:11:49:748	101	2	Expectancy_rating	expectancy_rating	0	1000	0	0	27	0	4458	1	When you saw the <b>object</b>,   to what <b>degree (0-100%)</b> did you expect the <b>unpleasant sound to occur</b>?	-12	26	Cue26.jpg	-12	0	0	0
10	2023-04-05	15:33:43	16:11:52	16:11:52:246	102	1	Expectancy_rating	fixation	0	5	1500	0	0	1	1495	1	+	-15	0	0	0	0	0	0
10	2023-04-05	15:33:43	16:11:55	16:11:55:716	102	2	Expectancy_rating	expectancy_rating	0	1000	0	0	60	0	3443	1	When you saw the <b>object</b>,   to what <b>degree (0-100%)</b> did you expect the <b>unpleasant sound to occur</b>?	-10	25	Cue25.jpg	-10	0	0	0
10	2023-04-05	15:33:43	16:11:57	16:11:57:214	103	1	Expectancy_rating	fixation	0	5	500	0	0	1	495	1	+	-15	0	0	0	0	0	0
10	2023-04-05	15:33:43	16:12:01	16:12:01:283	103	2	Expectancy_rating	expectancy_rating	0	500	0	0	30	0	4036	1	When you saw the <b>object</b>,   to what <b>degree (0-100%)</b> did you expect the <b>unpleasant sound to occur</b>?	-10	42	Object2.jpg	-10	0	0	0
10	2023-04-05	15:33:43	16:12:02	16:12:02:782	104	1	Expectancy_rating	fixation	0	5	1000	0	0	1	995	1	+	-14	0	0	0	0	0	0
10	2023-04-05	15:33:43	16:12:05	16:12:05:250	104	2	Expectancy_rating	expectancy_rating	0	1500	0	0	19	0	2437	1	When you saw the <b>object</b>,   to what <b>degree (0-100%)</b> did you expect the <b>unpleasant sound to occur</b>?	-11	22	Cue22.jpg	-11	0	0	0
10	2023-04-05	15:33:43	16:12:08	16:12:08:250	105	1	Expectancy_rating	fixation	0	5	1500	0	0	1	1495	1	+	-12	0	0	0	0	0	0
10	2023-04-05	15:33:43	16:12:13	16:12:13:516	105	2	Expectancy_rating	expectancy_rating	0	500	0	0	64	0	5234	1	When you saw the <b>object</b>,   to what <b>degree (0-100%)</b> did you expect the <b>unpleasant sound to occur</b>?	-16	21	Cue21.jpg	-16	0	0	0
10	2023-04-05	15:33:43	16:12:14	16:12:14:519	106	1	Expectancy_rating	fixation	0	5	500	0	0	1	495	1	+	-8	0	0	0	0	0	0
10	2023-04-05	15:33:43	16:12:16	16:12:16:817	106	2	Expectancy_rating	expectancy_rating	0	1500	0	0	50	0	2223	1	When you saw the <b>object</b>,   to what <b>degree (0-100%)</b> did you expect the <b>unpleasant sound to occur</b>?	-16	15	Cue15.jpg	-16	0	0	0
10	2023-04-05	15:33:43	16:12:19	16:12:19:782	107	1	Expectancy_rating	fixation	0	5	1500	0	0	1	1495	1	+	-15	0	0	0	0	0	0
10	2023-04-05	15:33:43	16:12:22	16:12:22:434	107	2	Expectancy_rating	expectancy_rating	0	1000	0	0	79	0	2620	1	When you saw the <b>object</b>,   to what <b>degree (0-100%)</b> did you expect the <b>unpleasant sound to occur</b>?	-10	12	Cue12.jpg	-10	0	0	0
10	2023-04-05	15:33:43	16:12:23	16:12:23:933	108	1	Expectancy_rating	fixation	0	5	500	0	0	1	495	1	+	-14	0	0	0	0	0	0
10	2023-04-05	15:33:43	16:12:28	16:12:28:400	108	2	Expectancy_rating	expectancy_rating	0	1500	0	0	70	0	4446	1	When you saw the <b>object</b>,   to what <b>degree (0-100%)</b> did you expect the <b>unpleasant sound to occur</b>?	-11	9	Cue9.jpg	-11	0	0	0
10	2023-04-05	15:33:43	16:12:30	16:12:30:899	109	1	Expectancy_rating	fixation	0	5	1000	0	0	1	995	1	+	-15	0	0	0	0	0	0
10	2023-04-05	15:33:43	16:12:36	16:12:36:901	109	2	Expectancy_rating	expectancy_rating	0	1000	0	0	50	0	5950	1	When you saw the <b>object</b>,   to what <b>degree (0-100%)</b> did you expect the <b>unpleasant sound to occur</b>?	-12	7	Cue7.jpg	-12	0	0	0
10	2023-04-05	15:33:43	16:12:39	16:12:39:383	110	1	Expectancy_rating	fixation	0	5	1500	0	0	1	1495	1	+	-15	0	0	0	0	0	0
10	2023-04-05	15:33:43	16:12:42	16:12:42:636	110	2	Expectancy_rating	expectancy_rating	0	500	0	0	60	0	3227	1	When you saw the <b>object</b>,   to what <b>degree (0-100%)</b> did you expect the <b>unpleasant sound to occur</b>?	-12	28	Cue28.jpg	-12	0	0	0
10	2023-04-05	15:33:43	16:12:44	16:12:44:134	111	1	Expectancy_rating	fixation	0	5	1000	0	0	1	995	1	+	-15	0	0	0	0	0	0
10	2023-04-05	15:33:43	16:12:47	16:12:47:219	111	2	Expectancy_rating	expectancy_rating	0	1000	0	0	60	0	3060	1	When you saw the <b>object</b>,   to what <b>degree (0-100%)</b> did you expect the <b>unpleasant sound to occur</b>?	-11	36	Cue36.jpg	-11	0	0	0
10	2023-04-05	15:33:43	16:12:48	16:12:48:717	112	1	Expectancy_rating	fixation	0	5	500	0	0	1	495	1	+	-15	0	0	0	0	0	0
10	2023-04-05	15:33:43	16:12:50	16:12:50:852	112	2	Expectancy_rating	expectancy_rating	0	1500	0	0	86	0	2109	1	When you saw the <b>object</b>,   to what <b>degree (0-100%)</b> did you expect the <b>unpleasant sound to occur</b>?	-10	30	Cue30.jpg	-10	0	0	0
10	2023-04-05	15:33:43	16:12:53	16:12:53:351	113	1	Expectancy_rating	fixation	0	5	1000	0	0	1	995	1	+	-15	0	0	0	0	0	0
10	2023-04-05	15:33:43	16:12:56	16:12:56:103	113	2	Expectancy_rating	expectancy_rating	0	500	0	0	65	0	2731	1	When you saw the <b>object</b>,   to what <b>degree (0-100%)</b> did you expect the <b>unpleasant sound to occur</b>?	-11	32	Cue32.jpg	-11	0	0	0
10	2023-04-05	15:33:43	16:13:11	16:13:11:638	114	1	continue_TNT	continue_TNT	0	5	0	0	0	0	15000	1	<center> <br><br><br> We will now continue with the next block of the attention task.   <br><br><br><center>Keep your fingers balanced on the <b>1, 2 and 3 </b>on the keyboard throughout the task   <br><br>to give the rating how well you were <b>able to think</b> or <b>not think</b> (1 = NEVER, 2 = BRIEFLY, 3 = OFTEN).  <br><br><br><br> <b>Press</b> the <b>button</b> on the <b>watch</b> for 1 second before you start!	-14	0	0	0	0	0	0
10	2023-04-05	15:33:43	16:13:12	16:13:12:139	115	1	TNT_NoThink_CSp	fixation	0	5	500	0	0	1	495	1	+	-8	0	0	0	0	0	0
10	2023-04-05	15:33:43	16:13:13	16:13:13:156	115	2	TNT_NoThink_CSp	NoThink	0	5	0	0	0	0	1000	1	DON'T THINK	-16	0	0	0	0	0	0
10	2023-04-05	15:33:43	16:13:18	16:13:18:172	115	3	TNT_NoThink_CSp	TNT_NoThink_CSp	0	5	0	0	0	0	5000	2	Cue4.jpg	-16	0	0	0	0	0	0
10	2023-04-05	15:33:43	16:13:18	16:13:18:718	115	4	TNT_NoThink_CSp	Intrusion	0	1500	3000	0	80	1	528	1	How <b>often</b> did you <b>think</b> about the <b>scene</b>?   <center><br><b>NEVER (1)    BRIEFLY (2)   OFTEN (3) </b>	-16	0	0	0	0	0	0
10	2023-04-05	15:33:43	16:13:22	16:13:22:676	116	1	TNT_NoThink_CSm	fixation	0	5	1500	0	0	1	1495	1	+	-9	0	0	0	0	0	0
10	2023-04-05	15:33:43	16:13:23	16:13:23:690	116	2	TNT_NoThink_CSm	NoThink	0	5	0	0	0	0	1000	1	DON'T THINK	-16	0	0	0	0	0	0
10	2023-04-05	15:33:43	16:13:28	16:13:28:706	116	3	TNT_NoThink_CSm	TNT_NoThink_CSm	0	5	0	0	0	0	5000	3	Cue24.jpg	-16	0	0	0	0	0	0
10	2023-04-05	15:33:43	16:13:29	16:13:29:438	116	4	TNT_NoThink_CSm	Intrusion	0	1000	3000	0	80	1	714	1	How <b>often</b> did you <b>think</b> about the <b>scene</b>?   <center><br><b>NEVER (1)    BRIEFLY (2)   OFTEN (3) </b>	-16	0	0	0	0	0	0
10	2023-04-05	15:33:43	16:13:32	16:13:32:210	117	1	TNT_NoThink_CSp	fixation	0	5	500	0	0	1	495	1	+	-9	0	0	0	0	0	0
10	2023-04-05	15:33:43	16:13:33	16:13:33:223	117	2	TNT_NoThink_CSp	NoThink	0	5	0	0	0	0	1000	1	DON'T THINK	-16	0	0	0	0	0	0
10	2023-04-05	15:33:43	16:13:38	16:13:38:240	117	3	TNT_NoThink_CSp	TNT_NoThink_CSp	0	5	0	0	0	0	5000	3	Cue27.jpg	-16	0	0	0	0	0	0
10	2023-04-05	15:33:43	16:13:38	16:13:38:830	117	4	TNT_NoThink_CSp	Intrusion	0	500	3000	0	80	1	572	1	How <b>often</b> did you <b>think</b> about the <b>scene</b>?   <center><br><b>NEVER (1)    BRIEFLY (2)   OFTEN (3) </b>	-16	0	0	0	0	0	0
10	2023-04-05	15:33:43	16:13:42	16:13:42:744	118	1	TNT_Think_CSp	fixation	0	5	1500	0	0	1	1495	1	+	-8	0	0	0	0	0	0
10	2023-04-05	15:33:43	16:13:43	16:13:43:757	118	2	TNT_Think_CSp	Think	0	5	0	0	0	0	1000	1	THINK	-16	0	0	0	0	0	0
10	2023-04-05	15:33:43	16:13:48	16:13:48:774	118	3	TNT_Think_CSp	TNT_Think_CSp	0	5	0	0	0	0	5000	5	Cue3.jpg	-16	0	0	0	0	0	0
10	2023-04-05	15:33:43	16:13:50	16:13:50:510	118	4	TNT_Think_CSp	Intrusion	0	500	3000	0	81	1	1719	1	How <b>often</b> did you <b>think</b> about the <b>scene</b>?   <center><br><b>NEVER (1)    BRIEFLY (2)   OFTEN (3) </b>	-16	0	0	0	0	0	0
10	2023-04-05	15:33:43	16:13:52	16:13:52:777	119	1	TNT_NoThink_CSp	fixation	0	5	1000	0	0	1	995	1	+	-9	0	0	0	0	0	0
10	2023-04-05	15:33:43	16:13:53	16:13:53:791	119	2	TNT_NoThink_CSp	NoThink	0	5	0	0	0	0	1000	1	DON'T THINK	-16	0	0	0	0	0	0
10	2023-04-05	15:33:43	16:13:58	16:13:58:808	119	3	TNT_NoThink_CSp	TNT_NoThink_CSp	0	5	0	0	0	0	5000	6	Cue16.jpg	-16	0	0	0	0	0	0
10	2023-04-05	15:33:43	16:13:59	16:13:59:614	119	4	TNT_NoThink_CSp	Intrusion	0	1500	3000	0	80	1	788	1	How <b>often</b> did you <b>think</b> about the <b>scene</b>?   <center><br><b>NEVER (1)    BRIEFLY (2)   OFTEN (3) </b>	-16	0	0	0	0	0	0
10	2023-04-05	15:33:43	16:14:02	16:14:02:311	120	1	TNT_NoThink_CSm	fixation	0	5	500	0	0	1	495	1	+	-9	0	0	0	0	0	0
10	2023-04-05	15:33:43	16:14:03	16:14:03:325	120	2	TNT_NoThink_CSm	NoThink	0	5	0	0	0	0	1000	1	DON'T THINK	-16	0	0	0	0	0	0
10	2023-04-05	15:33:43	16:14:08	16:14:08:341	120	3	TNT_NoThink_CSm	TNT_NoThink_CSm	0	5	0	0	0	0	5000	2	Cue22.jpg	-16	0	0	0	0	0	0
10	2023-04-05	15:33:43	16:14:09	16:14:09:990	120	4	TNT_NoThink_CSm	Intrusion	0	1000	3000	0	80	1	631	1	How <b>often</b> did you <b>think</b> about the <b>scene</b>?   <center><br><b>NEVER (1)    BRIEFLY (2)   OFTEN (3) </b>	-16	0	0	0	0	0	0
10	2023-04-05	15:33:43	16:14:12	16:14:12:346	121	1	TNT_NoThink_CSp	fixation	0	5	1000	0	0	1	995	1	+	-16	0	0	0	0	0	0
10	2023-04-05	15:33:43	16:14:13	16:14:13:359	121	2	TNT_NoThink_CSp	NoThink	0	5	0	0	0	0	1000	1	DON'T THINK	-16	0	0	0	0	0	0
10	2023-04-05	15:33:43	16:14:18	16:14:18:375	121	3	TNT_NoThink_CSp	TNT_NoThink_CSp	0	5	0	0	0	0	5000	4	Cue2.jpg	-16	0	0	0	0	0	0
10	2023-04-05	15:33:43	16:14:19	16:14:19:550	121	4	TNT_NoThink_CSp	Intrusion	0	1000	3000	0	80	1	1156	1	How <b>often</b> did you <b>think</b> about the <b>scene</b>?   <center><br><b>NEVER (1)    BRIEFLY (2)   OFTEN (3) </b>	-16	0	0	0	0	0	0
10	2023-04-05	15:33:43	16:14:22	16:14:22:880	122	1	TNT_NoThink_CSp	fixation	0	5	1500	0	0	1	1495	1	+	-16	0	0	0	0	0	0
10	2023-04-05	15:33:43	16:14:23	16:14:23:893	122	2	TNT_NoThink_CSp	NoThink	0	5	0	0	0	0	1000	1	DON'T THINK	-16	0	0	0	0	0	0
10	2023-04-05	15:33:43	16:14:28	16:14:28:910	122	3	TNT_NoThink_CSp	TNT_NoThink_CSp	0	5	0	0	0	0	5000	1	Cue6.jpg	-16	0	0	0	0	0	0
10	2023-04-05	15:33:43	16:14:30	16:14:30:014	122	4	TNT_NoThink_CSp	Intrusion	0	1500	3000	0	80	1	1087	1	How <b>often</b> did you <b>think</b> about the <b>scene</b>?   <center><br><b>NEVER (1)    BRIEFLY (2)   OFTEN (3) </b>	-16	0	0	0	0	0	0
10	2023-04-05	15:33:43	16:14:32	16:14:32:914	123	1	TNT_Object_CSm	fixation	0	5	1000	0	0	1	995	1	+	-16	0	0	0	0	0	0
10	2023-04-05	15:33:43	16:14:33	16:14:33:927	123	2	TNT_Object_CSm	Passive	0	5	0	0	0	0	1000	1	VIEW	-16	0	0	0	0	0	0
10	2023-04-05	15:33:43	16:14:38	16:14:38:944	123	3	TNT_Object_CSm	TNT_Object_CSm	0	500	0	0	0	0	5000	4	Object7.jpg	-16	0	0	0	0	0	0
10	2023-04-05	15:33:43	16:14:39	16:14:39:943	124	1	TNT_Think_CSm	fixation	0	5	500	0	0	1	495	1	+	-9	0	0	0	0	0	0
10	2023-04-05	15:33:43	16:14:40	16:14:40:960	124	2	TNT_Think_CSm	Think	0	5	0	0	0	0	1000	1	THINK	-16	0	0	0	0	0	0
10	2023-04-05	15:33:43	16:14:45	16:14:45:977	124	3	TNT_Think_CSm	TNT_Think_CSm	0	5	0	0	0	0	5000	1	Cue32.jpg	-16	0	0	0	0	0	0
10	2023-04-05	15:33:43	16:14:46	16:14:46:558	124	4	TNT_Think_CSm	Intrusion	0	500	3000	0	81	1	563	1	How <b>often</b> did you <b>think</b> about the <b>scene</b>?   <center><br><b>NEVER (1)    BRIEFLY (2)   OFTEN (3) </b>	-16	0	0	0	0	0	0
10	2023-04-05	15:33:43	16:14:50	16:14:50:481	125	1	TNT_Object_CSm	fixation	0	5	1500	0	0	1	1495	1	+	-9	0	0	0	0	0	0
10	2023-04-05	15:33:43	16:14:51	16:14:51:494	125	2	TNT_Object_CSm	Passive	0	5	0	0	0	0	1000	1	VIEW	-16	0	0	0	0	0	0
10	2023-04-05	15:33:43	16:14:56	16:14:56:511	125	3	TNT_Object_CSm	TNT_Object_CSm	0	1500	0	0	0	0	5000	2	Object1.jpg	-16	0	0	0	0	0	0
10	2023-04-05	15:33:43	16:14:59	16:14:59:511	126	1	TNT_Object_CSp	fixation	0	5	1500	0	0	1	1495	1	+	-9	0	0	0	0	0	0
10	2023-04-05	15:33:43	16:15:00	16:15:00:528	126	2	TNT_Object_CSp	Passive	0	5	0	0	0	0	1000	1	VIEW	-16	0	0	0	0	0	0
10	2023-04-05	15:33:43	16:15:05	16:15:05:545	126	3	TNT_Object_CSp	TNT_Object_CSp	0	500	0	0	0	0	5000	3	Object6.jpg	-16	0	0	0	0	0	0
10	2023-04-05	15:33:43	16:15:07	16:15:07:045	127	1	TNT_Think_CSp	fixation	0	5	1000	0	0	1	995	1	+	-9	0	0	0	0	0	0
10	2023-04-05	15:33:43	16:15:08	16:15:08:062	127	2	TNT_Think_CSp	Think	0	5	0	0	0	0	1000	1	THINK	-16	0	0	0	0	0	0
10	2023-04-05	15:33:43	16:15:13	16:15:13:079	127	3	TNT_Think_CSp	TNT_Think_CSp	0	5	0	0	0	0	5000	6	Cue36.jpg	-16	0	0	0	0	0	0
10	2023-04-05	15:33:43	16:15:13	16:15:13:694	127	4	TNT_Think_CSp	Intrusion	0	500	3000	0	81	1	597	1	How <b>often</b> did you <b>think</b> about the <b>scene</b>?   <center><br><b>NEVER (1)    BRIEFLY (2)   OFTEN (3) </b>	-16	0	0	0	0	0	0
10	2023-04-05	15:33:43	16:15:16	16:15:16:582	128	1	TNT_Think_CSm	fixation	0	5	500	0	0	1	495	1	+	-9	0	0	0	0	0	0
10	2023-04-05	15:33:43	16:15:17	16:15:17:596	128	2	TNT_Think_CSm	Think	0	5	0	0	0	0	1000	1	THINK	-16	0	0	0	0	0	0
10	2023-04-05	15:33:43	16:15:22	16:15:22:613	128	3	TNT_Think_CSm	TNT_Think_CSm	0	5	0	0	0	0	5000	5	Cue26.jpg	-16	0	0	0	0	0	0
10	2023-04-05	15:33:43	16:15:23	16:15:23:422	128	4	TNT_Think_CSm	Intrusion	0	1500	3000	0	81	1	791	1	How <b>often</b> did you <b>think</b> about the <b>scene</b>?   <center><br><b>NEVER (1)    BRIEFLY (2)   OFTEN (3) </b>	-16	0	0	0	0	0	0
10	2023-04-05	15:33:43	16:15:27	16:15:27:117	129	1	TNT_NoThink_CSm	fixation	0	5	1500	0	0	1	1495	1	+	-8	0	0	0	0	0	0
10	2023-04-05	15:33:43	16:15:28	16:15:28:130	129	2	TNT_NoThink_CSm	NoThink	0	5	0	0	0	0	1000	1	DON'T THINK	-16	0	0	0	0	0	0
10	2023-04-05	15:33:43	16:15:33	16:15:33:147	129	3	TNT_NoThink_CSm	TNT_NoThink_CSm	0	5	0	0	0	0	5000	5	Cue14.jpg	-16	0	0	0	0	0	0
10	2023-04-05	15:33:43	16:15:34	16:15:34:391	129	4	TNT_NoThink_CSm	Intrusion	0	1000	3000	0	80	1	1218	1	How <b>often</b> did you <b>think</b> about the <b>scene</b>?   <center><br><b>NEVER (1)    BRIEFLY (2)   OFTEN (3) </b>	-16	0	0	0	0	0	0
10	2023-04-05	15:33:43	16:15:36	16:15:36:651	130	1	TNT_Object_CSm	fixation	0	5	500	0	0	1	495	1	+	-9	0	0	0	0	0	0
10	2023-04-05	15:33:43	16:15:37	16:15:37:664	130	2	TNT_Object_CSm	Passive	0	5	0	0	0	0	1000	1	VIEW	-16	0	0	0	0	0	0
10	2023-04-05	15:33:43	16:15:42	16:15:42:681	130	3	TNT_Object_CSm	TNT_Object_CSm	0	1000	0	0	0	0	5000	3	Object4.jpg	-16	0	0	0	0	0	0
10	2023-04-05	15:33:43	16:15:44	16:15:44:680	131	1	TNT_NoThink_CSp	fixation	0	5	1000	0	0	1	995	1	+	-8	0	0	0	0	0	0
10	2023-04-05	15:33:43	16:15:45	16:15:45:698	131	2	TNT_NoThink_CSp	NoThink	0	5	0	0	0	0	1000	1	DON'T THINK	-16	0	0	0	0	0	0
10	2023-04-05	15:33:43	16:15:50	16:15:50:715	131	3	TNT_NoThink_CSp	TNT_NoThink_CSp	0	5	0	0	0	0	5000	5	Cue29.jpg	-16	0	0	0	0	0	0
10	2023-04-05	15:33:43	16:15:51	16:15:51:262	131	4	TNT_NoThink_CSp	Intrusion	0	1000	3000	0	80	1	530	1	How <b>often</b> did you <b>think</b> about the <b>scene</b>?   <center><br><b>NEVER (1)    BRIEFLY (2)   OFTEN (3) </b>	-16	0	0	0	0	0	0
