subject	date	time	currenttime	currenttime_plus_ms	blocknum	trialnum	blockcode	trialcode	pretrialpause	posttrialpause	trialduration	trialtimeout	response	correct	latency	stimulusnumber1	stimulusitem1	stimulusonset1	stimulusnumber2	stimulusitem2	stimulusonset2	stimulusnumber3	stimulusitem3	stimulusonset3
6	2023-03-30	12:40:30	12:42:25	12:42:25:08	2	1	Reminder_Baseline_CSp	fixation	0	5	1000	0	0	1	995	1	+	-16	0	0	0	0	0	0
6	2023-03-30	12:40:30	12:42:30	12:42:30:049	2	2	Reminder_Baseline_CSp	Baseline_CSp	0	5	0	0	0	0	5000	1	+	-7	5	Cue6.jpg	-7	5	Target6.jpg	-7
6	2023-03-30	12:40:30	12:42:35	12:42:35:830	2	3	Reminder_Baseline_CSp	valence	0	5	0	0	54	0	5712	1	I found these images to be...	-3	0	0	0	0	0	0
6	2023-03-30	12:40:30	12:42:44	12:42:44:931	2	4	Reminder_Baseline_CSp	expectancy	0	1000	0	0	76	0	9023	1	When you saw the <b>object-scene</b>,   to what <b>degree (0-100%)</b> did you expect the <b>unpleasant sound to occur</b>?	-6	0	0	0	0	0	0
6	2023-03-30	12:40:30	12:42:47	12:42:47:432	3	1	Reminder_NoThink_CSp	fixation	0	5	1500	0	0	1	1495	1	+	-12	0	0	0	0	0	0
6	2023-03-30	12:40:30	12:42:52	12:42:52:450	3	2	Reminder_NoThink_CSp	NoThink_CSp	0	5	0	0	0	0	5000	1	+	-16	4	Cue28.jpg	-16	4	Target28.jpg	-16
6	2023-03-30	12:40:30	12:43:08	12:43:08:783	3	3	Reminder_NoThink_CSp	valence	0	5	0	0	60	0	16304	1	I found these images to be...	-16	0	0	0	0	0	0
6	2023-03-30	12:40:30	12:43:28	12:43:28:617	3	4	Reminder_NoThink_CSp	expectancy	0	1500	0	0	10	0	19793	1	When you saw the <b>object-scene</b>,   to what <b>degree (0-100%)</b> did you expect the <b>unpleasant sound to occur</b>?	0	0	0	0	0	0	0
6	2023-03-30	12:40:30	12:43:30	12:43:30:619	4	1	Reminder_NoThink_CSp	fixation	0	5	500	0	0	1	495	1	+	-13	0	0	0	0	0	0
6	2023-03-30	12:40:30	12:43:35	12:43:35:634	4	2	Reminder_NoThink_CSp	NoThink_CSp	0	5	0	0	0	0	5000	1	+	-16	6	Cue12.jpg	-16	6	Target12.jpg	-16
6	2023-03-30	12:40:30	12:43:39	12:43:39:317	4	3	Reminder_NoThink_CSp	valence	0	5	0	0	31	0	3654	1	I found these images to be...	-16	0	0	0	0	0	0
6	2023-03-30	12:40:30	12:43:47	12:43:47:568	4	4	Reminder_NoThink_CSp	expectancy	0	500	0	0	68	0	8210	1	When you saw the <b>object-scene</b>,   to what <b>degree (0-100%)</b> did you expect the <b>unpleasant sound to occur</b>?	0	0	0	0	0	0	0
6	2023-03-30	12:40:30	12:43:48	12:43:48:569	5	1	Reminder_Think_CSp	fixation	0	5	500	0	0	1	495	1	+	-12	0	0	0	0	0	0
6	2023-03-30	12:40:30	12:43:53	12:43:53:585	5	2	Reminder_Think_CSp	Think_CSp	0	5	0	0	0	0	5000	1	+	-16	4	Cue33.jpg	-16	4	Target33.jpg	-16
6	2023-03-30	12:40:30	12:43:59	12:43:59:519	5	3	Reminder_Think_CSp	valence	0	5	0	0	50	0	5911	1	I found these images to be...	-16	0	0	0	0	0	0
6	2023-03-30	12:40:30	12:44:14	12:44:14:169	5	4	Reminder_Think_CSp	expectancy	0	1500	0	0	60	0	14584	1	When you saw the <b>object-scene</b>,   to what <b>degree (0-100%)</b> did you expect the <b>unpleasant sound to occur</b>?	-12	0	0	0	0	0	0
6	2023-03-30	12:40:30	12:44:16	12:44:16:654	6	1	Reminder_Think_CSm	fixation	0	5	1000	0	0	1	995	1	+	-12	0	0	0	0	0	0
6	2023-03-30	12:40:30	12:44:21	12:44:21:671	6	2	Reminder_Think_CSm	Think_CSm	0	5	0	0	0	0	5000	1	+	-16	3	Cue30.jpg	-16	3	Target30.jpg	-16
6	2023-03-30	12:40:30	12:44:24	12:44:24:654	6	3	Reminder_Think_CSm	valence	0	5	0	0	33	0	2930	1	I found these images to be...	-16	0	0	0	0	0	0
6	2023-03-30	12:40:30	12:44:37	12:44:37:571	6	4	Reminder_Think_CSm	expectancy	0	1000	0	0	25	0	12874	1	When you saw the <b>object-scene</b>,   to what <b>degree (0-100%)</b> did you expect the <b>unpleasant sound to occur</b>?	-7	0	0	0	0	0	0
6	2023-03-30	12:40:30	12:44:40	12:44:40:072	7	1	Reminder_Baseline_CSm	fixation	0	5	1500	0	0	1	1495	1	+	-13	0	0	0	0	0	0
6	2023-03-30	12:40:30	12:44:45	12:44:45:089	7	2	Reminder_Baseline_CSm	Baseline_CSm	0	5	0	0	0	0	5000	1	+	-16	1	Cue3.jpg	-16	1	Target3.jpg	-16
6	2023-03-30	12:40:30	12:44:49	12:44:49:322	7	3	Reminder_Baseline_CSm	valence	0	5	0	0	20	0	4208	1	I found these images to be...	-16	0	0	0	0	0	0
6	2023-03-30	12:40:30	12:44:54	12:44:54:089	7	4	Reminder_Baseline_CSm	expectancy	0	500	0	0	56	0	4725	1	When you saw the <b>object-scene</b>,   to what <b>degree (0-100%)</b> did you expect the <b>unpleasant sound to occur</b>?	-11	0	0	0	0	0	0
6	2023-03-30	12:40:30	12:44:55	12:44:55:588	8	1	Reminder_NoThink_CSp	fixation	0	5	1000	0	0	1	995	1	+	-13	0	0	0	0	0	0
6	2023-03-30	12:40:30	12:45:00	12:45:00:606	8	2	Reminder_NoThink_CSp	NoThink_CSp	0	5	0	0	0	0	5000	1	+	-16	3	Cue23.jpg	-16	3	Target23.jpg	-16
6	2023-03-30	12:40:30	12:45:08	12:45:08:773	8	3	Reminder_NoThink_CSp	valence	0	5	0	0	40	0	8138	1	I found these images to be...	-16	0	0	0	0	0	0
6	2023-03-30	12:40:30	12:45:23	12:45:23:874	8	4	Reminder_NoThink_CSp	expectancy	0	1500	0	0	79	0	15034	1	When you saw the <b>object-scene</b>,   to what <b>degree (0-100%)</b> did you expect the <b>unpleasant sound to occur</b>?	0	0	0	0	0	0	0
6	2023-03-30	12:40:30	12:45:25	12:45:25:859	9	1	Reminder_Think_CSm	fixation	0	5	500	0	0	1	495	1	+	-9	0	0	0	0	0	0
6	2023-03-30	12:40:30	12:45:30	12:45:30:876	9	2	Reminder_Think_CSm	Think_CSm	0	5	0	0	0	0	5000	1	+	-16	1	Cue14.jpg	-16	1	Target14.jpg	-16
6	2023-03-30	12:40:30	12:45:33	12:45:33:419	9	3	Reminder_Think_CSm	valence	0	5	0	0	43	0	2494	1	I found these images to be...	-16	0	0	0	0	0	0
6	2023-03-30	12:40:30	12:45:46	12:45:46:092	9	4	Reminder_Think_CSm	expectancy	0	500	0	0	50	0	12639	1	When you saw the <b>object-scene</b>,   to what <b>degree (0-100%)</b> did you expect the <b>unpleasant sound to occur</b>?	0	0	0	0	0	0	0
6	2023-03-30	12:40:30	12:45:48	12:45:48:095	10	1	Reminder_Baseline_CSm	fixation	0	5	1500	0	0	1	1495	1	+	-9	0	0	0	0	0	0
6	2023-03-30	12:40:30	12:45:53	12:45:53:110	10	2	Reminder_Baseline_CSm	Baseline_CSm	0	5	0	0	0	0	5000	1	+	-16	2	Cue9.jpg	-16	2	Target9.jpg	-16
6	2023-03-30	12:40:30	12:45:56	12:45:56:809	10	3	Reminder_Baseline_CSm	valence	0	5	0	0	26	0	3643	1	I found these images to be...	-16	0	0	0	0	0	0
6	2023-03-30	12:40:30	12:46:01	12:46:01:826	10	4	Reminder_Baseline_CSm	expectancy	0	1000	0	0	70	0	4957	1	When you saw the <b>object-scene</b>,   to what <b>degree (0-100%)</b> did you expect the <b>unpleasant sound to occur</b>?	-7	0	0	0	0	0	0
6	2023-03-30	12:40:30	12:46:04	12:46:04:326	11	1	Reminder_Think_CSm	fixation	0	5	1500	0	0	1	1495	1	+	-13	0	0	0	0	0	0
6	2023-03-30	12:40:30	12:46:09	12:46:09:344	11	2	Reminder_Think_CSm	Think_CSm	0	5	0	0	0	0	5000	1	+	-16	2	Cue22.jpg	-16	2	Target22.jpg	-16
6	2023-03-30	12:40:30	12:46:11	12:46:11:677	11	3	Reminder_Think_CSm	valence	0	5	0	0	31	0	2305	1	I found these images to be...	-16	0	0	0	0	0	0
6	2023-03-30	12:40:30	12:46:16	12:46:16:277	11	4	Reminder_Think_CSm	expectancy	0	500	0	0	66	0	4562	1	When you saw the <b>object-scene</b>,   to what <b>degree (0-100%)</b> did you expect the <b>unpleasant sound to occur</b>?	-11	0	0	0	0	0	0
6	2023-03-30	12:40:30	12:46:17	12:46:17:777	12	1	Reminder_NoThink_CSm	fixation	0	5	1000	0	0	1	995	1	+	-13	0	0	0	0	0	0
6	2023-03-30	12:40:30	12:46:22	12:46:22:794	12	2	Reminder_NoThink_CSm	NoThink_CSm	0	5	0	0	0	0	5000	1	+	-16	6	Cue1.jpg	-16	6	Target1.jpg	-16
6	2023-03-30	12:40:30	12:46:25	12:46:25:461	12	3	Reminder_NoThink_CSm	valence	0	5	0	0	20	0	2614	1	I found these images to be...	-16	0	0	0	0	0	0
6	2023-03-30	12:40:30	12:46:30	12:46:30:245	12	4	Reminder_NoThink_CSm	expectancy	0	1500	0	0	85	0	4738	1	When you saw the <b>object-scene</b>,   to what <b>degree (0-100%)</b> did you expect the <b>unpleasant sound to occur</b>?	-11	0	0	0	0	0	0
6	2023-03-30	12:40:30	12:46:32	12:46:32:244	13	1	Reminder_Think_CSp	fixation	0	5	500	0	0	1	495	1	+	-12	0	0	0	0	0	0
6	2023-03-30	12:40:30	12:46:37	12:46:37:262	13	2	Reminder_Think_CSp	Think_CSp	0	5	0	0	0	0	5000	1	+	-16	5	Cue27.jpg	-16	5	Target27.jpg	-16
6	2023-03-30	12:40:30	12:46:41	12:46:41:829	13	3	Reminder_Think_CSp	valence	0	5	0	0	55	0	4538	1	I found these images to be...	-16	0	0	0	0	0	0
6	2023-03-30	12:40:30	12:46:52	12:46:52:696	13	4	Reminder_Think_CSp	expectancy	0	1000	0	0	80	0	10827	1	When you saw the <b>object-scene</b>,   to what <b>degree (0-100%)</b> did you expect the <b>unpleasant sound to occur</b>?	0	0	0	0	0	0	0
6	2023-03-30	12:40:30	12:46:54	12:46:54:195	14	1	Reminder_Think_CSp	fixation	0	5	500	0	0	1	495	1	+	-12	0	0	0	0	0	0
6	2023-03-30	12:40:30	12:46:59	12:46:59:213	14	2	Reminder_Think_CSp	Think_CSp	0	5	0	0	0	0	5000	1	+	-16	3	Cue25.jpg	-16	3	Target25.jpg	-16
6	2023-03-30	12:40:30	12:47:03	12:47:03:047	14	3	Reminder_Think_CSp	valence	0	5	0	0	40	0	3811	1	I found these images to be...	-16	0	0	0	0	0	0
6	2023-03-30	12:40:30	12:47:08	12:47:08:330	14	4	Reminder_Think_CSp	expectancy	0	500	0	0	70	0	5241	1	When you saw the <b>object-scene</b>,   to what <b>degree (0-100%)</b> did you expect the <b>unpleasant sound to occur</b>?	-12	0	0	0	0	0	0
6	2023-03-30	12:40:30	12:47:10	12:47:10:330	15	1	Reminder_Baseline_CSm	fixation	0	5	1500	0	0	1	1495	1	+	-13	0	0	0	0	0	0
6	2023-03-30	12:40:30	12:47:15	12:47:15:347	15	2	Reminder_Baseline_CSm	Baseline_CSm	0	5	0	0	0	0	5000	1	+	-16	5	Cue21.jpg	-16	5	Target21.jpg	-16
6	2023-03-30	12:40:30	12:47:21	12:47:21:232	15	3	Reminder_Baseline_CSm	valence	0	5	0	0	40	0	5861	1	I found these images to be...	-16	0	0	0	0	0	0
6	2023-03-30	12:40:30	12:47:25	12:47:25:881	15	4	Reminder_Baseline_CSm	expectancy	0	1000	0	0	10	0	4584	1	When you saw the <b>object-scene</b>,   to what <b>degree (0-100%)</b> did you expect the <b>unpleasant sound to occur</b>?	-12	0	0	0	0	0	0
6	2023-03-30	12:40:30	12:47:27	12:47:27:866	16	1	Reminder_NoThink_CSp	fixation	0	5	1000	0	0	1	995	1	+	-13	0	0	0	0	0	0
6	2023-03-30	12:40:30	12:47:32	12:47:32:884	16	2	Reminder_NoThink_CSp	NoThink_CSp	0	5	0	0	0	0	5000	1	+	-16	5	Cue11.jpg	-16	5	Target11.jpg	-16
6	2023-03-30	12:40:30	12:47:39	12:47:39:632	16	3	Reminder_NoThink_CSp	valence	0	5	0	0	40	0	6718	1	I found these images to be...	-16	0	0	0	0	0	0
6	2023-03-30	12:40:30	12:47:46	12:47:46:042	16	4	Reminder_NoThink_CSp	expectancy	0	1500	0	0	30	0	6343	1	When you saw the <b>object-scene</b>,   to what <b>degree (0-100%)</b> did you expect the <b>unpleasant sound to occur</b>?	0	0	0	0	0	0	0
6	2023-03-30	12:40:30	12:47:48	12:47:48:532	17	1	Reminder_Baseline_CSm	fixation	0	5	1000	0	0	1	995	1	+	-8	0	0	0	0	0	0
6	2023-03-30	12:40:30	12:47:53	12:47:53:552	17	2	Reminder_Baseline_CSm	Baseline_CSm	0	5	0	0	0	0	5000	1	+	-16	6	Cue19.jpg	-16	6	Target19.jpg	-16
6	2023-03-30	12:40:30	12:47:56	12:47:56:994	17	3	Reminder_Baseline_CSm	valence	0	5	0	0	50	0	2394	1	I found these images to be...	-16	0	0	0	0	0	0
6	2023-03-30	12:40:30	12:48:06	12:48:06:100	17	4	Reminder_Baseline_CSm	expectancy	0	1500	0	0	70	0	10048	1	When you saw the <b>object-scene</b>,   to what <b>degree (0-100%)</b> did you expect the <b>unpleasant sound to occur</b>?	3	0	0	0	0	0	0
6	2023-03-30	12:40:30	12:48:08	12:48:08:085	18	1	Reminder_Objects_CSm	fixation	0	5	500	0	0	1	495	1	+	-12	0	0	0	0	0	0
6	2023-03-30	12:40:30	12:48:13	12:48:13:101	18	2	Reminder_Objects_CSm	Objects_CSm	0	5	0	0	0	0	5000	1	Object4.jpg	-16	0	0	0	0	0	0
6	2023-03-30	12:40:30	12:48:18	12:48:18:902	18	3	Reminder_Objects_CSm	expectancy_object	0	1500	0	0	10	0	5779	1	When you saw the <b>object</b>,   to what <b>degree (0-100%)</b> did you expect the <b>unpleasant sound to occur</b>?	-16	0	0	0	0	0	0
6	2023-03-30	12:40:30	12:48:21	12:48:21:902	19	1	PracticeItems_Think	fixation	0	5	1500	0	0	1	1495	1	+	-10	0	0	0	0	0	0
6	2023-03-30	12:40:30	12:48:26	12:48:26:921	19	2	PracticeItems_Think	PracticeItems_Think	0	5	0	0	0	0	5000	1	+	-16	2	Cue38.jpg	-16	2	Target38.jpg	-16
6	2023-03-30	12:40:30	12:48:38	12:48:38:302	19	3	PracticeItems_Think	valence	0	5	0	0	19	0	11353	1	I found these images to be...	-16	0	0	0	0	0	0
6	2023-03-30	12:40:30	12:48:45	12:48:45:936	19	4	PracticeItems_Think	expectancy	0	500	0	0	50	0	7593	1	When you saw the <b>object-scene</b>,   to what <b>degree (0-100%)</b> did you expect the <b>unpleasant sound to occur</b>?	0	0	0	0	0	0	0
6	2023-03-30	12:40:30	12:48:46	12:48:46:937	20	1	PracticeItems_NoThink	fixation	0	5	500	0	0	1	495	1	+	-12	0	0	0	0	0	0
6	2023-03-30	12:40:30	12:48:51	12:48:51:953	20	2	PracticeItems_NoThink	PracticeItems_NoThink	0	5	0	0	0	0	5000	1	+	-16	2	Cue40.jpg	-16	2	Target40.jpg	-16
6	2023-03-30	12:40:30	12:48:54	12:48:54:370	20	3	PracticeItems_NoThink	valence	0	5	0	0	30	0	2367	1	I found these images to be...	-16	0	0	0	0	0	0
6	2023-03-30	12:40:30	12:49:01	12:49:01:838	20	4	PracticeItems_NoThink	expectancy	0	1000	0	0	66	0	7430	1	When you saw the <b>object-scene</b>,   to what <b>degree (0-100%)</b> did you expect the <b>unpleasant sound to occur</b>?	-12	0	0	0	0	0	0
6	2023-03-30	12:40:30	12:49:04	12:49:04:338	21	1	Reminder_NoThink_CSm	fixation	0	5	1500	0	0	1	1495	1	+	-13	0	0	0	0	0	0
6	2023-03-30	12:40:30	12:49:09	12:49:09:354	21	2	Reminder_NoThink_CSm	NoThink_CSm	0	5	0	0	0	0	5000	1	+	-16	3	Cue4.jpg	-16	3	Target4.jpg	-16
6	2023-03-30	12:40:30	12:49:17	12:49:17:255	21	3	Reminder_NoThink_CSm	valence	0	5	0	0	30	0	7869	1	I found these images to be...	-16	0	0	0	0	0	0
6	2023-03-30	12:40:30	12:49:35	12:49:35:723	21	4	Reminder_NoThink_CSm	expectancy	0	1000	0	0	70	0	18424	1	When you saw the <b>object-scene</b>,   to what <b>degree (0-100%)</b> did you expect the <b>unpleasant sound to occur</b>?	0	0	0	0	0	0	0
6	2023-03-30	12:40:30	12:49:37	12:49:37:727	22	1	Reminder_NoThink_CSm	fixation	0	5	1000	0	0	1	995	1	+	-8	0	0	0	0	0	0
6	2023-03-30	12:40:30	12:49:42	12:49:42:742	22	2	Reminder_NoThink_CSm	NoThink_CSm	0	5	0	0	0	0	5000	1	+	-16	2	Cue7.jpg	-16	2	Target7.jpg	-16
6	2023-03-30	12:40:30	12:49:45	12:49:45:522	22	3	Reminder_NoThink_CSm	valence	0	5	0	0	15	0	2732	1	I found these images to be...	-16	0	0	0	0	0	0
6	2023-03-30	12:40:30	12:49:49	12:49:49:340	22	4	Reminder_NoThink_CSm	expectancy	0	1500	0	0	40	0	3772	1	When you saw the <b>object-scene</b>,   to what <b>degree (0-100%)</b> did you expect the <b>unpleasant sound to occur</b>?	-7	0	0	0	0	0	0
6	2023-03-30	12:40:30	12:49:51	12:49:51:342	23	1	Reminder_Objects_CSp	fixation	0	5	500	0	0	1	495	1	+	-7	0	0	0	0	0	0
6	2023-03-30	12:40:30	12:49:56	12:49:56:359	23	2	Reminder_Objects_CSp	Objects_CSp	0	5	0	0	0	0	5000	1	Object2.jpg	-16	0	0	0	0	0	0
6	2023-03-30	12:40:30	12:50:00	12:50:00:207	23	3	Reminder_Objects_CSp	expectancy_object	0	500	0	0	0	0	3818	1	When you saw the <b>object</b>,   to what <b>degree (0-100%)</b> did you expect the <b>unpleasant sound to occur</b>?	-16	0	0	0	0	0	0
6	2023-03-30	12:40:30	12:50:01	12:50:01:706	24	1	Reminder_NoThink_CSp	fixation	0	5	1000	0	0	1	995	1	+	-13	0	0	0	0	0	0
6	2023-03-30	12:40:30	12:50:06	12:50:06:727	24	2	Reminder_NoThink_CSp	NoThink_CSp	0	5	0	0	0	0	5000	1	+	-16	1	Cue8.jpg	-16	1	Target8.jpg	-16
6	2023-03-30	12:40:30	12:50:09	12:50:09:074	24	3	Reminder_NoThink_CSp	valence	0	5	0	0	30	0	2323	1	I found these images to be...	-16	0	0	0	0	0	0
6	2023-03-30	12:40:30	12:50:12	12:50:12:907	24	4	Reminder_NoThink_CSp	expectancy	0	500	0	0	90	0	3764	1	When you saw the <b>object-scene</b>,   to what <b>degree (0-100%)</b> did you expect the <b>unpleasant sound to occur</b>?	0	0	0	0	0	0	0
6	2023-03-30	12:40:30	12:50:14	12:50:14:894	25	1	Reminder_Objects_CSp	fixation	0	5	1500	0	0	1	1495	1	+	-9	0	0	0	0	0	0
6	2023-03-30	12:40:30	12:50:19	12:50:19:910	25	2	Reminder_Objects_CSp	Objects_CSp	0	5	0	0	0	0	5000	2	Object3.jpg	-16	0	0	0	0	0	0
6	2023-03-30	12:40:30	12:50:23	12:50:23:659	25	3	Reminder_Objects_CSp	expectancy_object	0	1000	0	0	33	0	3723	1	When you saw the <b>object</b>,   to what <b>degree (0-100%)</b> did you expect the <b>unpleasant sound to occur</b>?	-16	0	0	0	0	0	0
6	2023-03-30	12:40:30	12:50:25	12:50:25:162	26	1	Reminder_Objects_CSm	fixation	0	5	500	0	0	1	495	1	+	-7	0	0	0	0	0	0
6	2023-03-30	12:40:30	12:50:30	12:50:30:177	26	2	Reminder_Objects_CSm	Objects_CSm	0	5	0	0	0	0	5000	3	Object8.jpg	-16	0	0	0	0	0	0
6	2023-03-30	12:40:30	12:50:33	12:50:33:642	26	3	Reminder_Objects_CSm	expectancy_object	0	500	0	0	11	0	3440	1	When you saw the <b>object</b>,   to what <b>degree (0-100%)</b> did you expect the <b>unpleasant sound to occur</b>?	-16	0	0	0	0	0	0
6	2023-03-30	12:40:30	12:50:35	12:50:35:141	27	1	PracticeItems_Think	fixation	0	5	1000	0	0	1	995	1	+	-13	0	0	0	0	0	0
6	2023-03-30	12:40:30	12:50:40	12:50:40:160	27	2	PracticeItems_Think	PracticeItems_Think	0	5	0	0	0	0	5000	1	+	-11	1	Cue37.jpg	-11	1	Target37.jpg	-11
6	2023-03-30	12:40:30	12:50:54	12:50:54:310	27	3	PracticeItems_Think	valence	0	5	0	0	55	0	14120	1	I found these images to be...	-16	0	0	0	0	0	0
6	2023-03-30	12:40:30	12:51:14	12:51:14:294	27	4	PracticeItems_Think	expectancy	0	1000	0	0	20	0	19936	1	When you saw the <b>object-scene</b>,   to what <b>degree (0-100%)</b> did you expect the <b>unpleasant sound to occur</b>?	0	0	0	0	0	0	0
6	2023-03-30	12:40:30	12:51:16	12:51:16:795	28	1	Reminder_Think_CSp	fixation	0	5	1500	0	0	1	1495	1	+	-13	0	0	0	0	0	0
6	2023-03-30	12:40:30	12:51:21	12:51:21:812	28	2	Reminder_Think_CSp	Think_CSp	0	5	0	0	0	0	5000	1	+	-16	6	Cue29.jpg	-16	6	Target29.jpg	-16
6	2023-03-30	12:40:30	12:51:24	12:51:24:012	28	3	Reminder_Think_CSp	valence	0	5	0	0	40	0	2179	1	I found these images to be...	-16	0	0	0	0	0	0
6	2023-03-30	12:40:30	12:51:28	12:51:28:579	28	4	Reminder_Think_CSp	expectancy	0	500	0	0	20	0	4522	1	When you saw the <b>object-scene</b>,   to what <b>degree (0-100%)</b> did you expect the <b>unpleasant sound to occur</b>?	-12	0	0	0	0	0	0
6	2023-03-30	12:40:30	12:51:30	12:51:30:078	29	1	Reminder_Baseline_CSm	fixation	0	5	1000	0	0	1	995	1	+	-13	0	0	0	0	0	0
6	2023-03-30	12:40:30	12:51:35	12:51:35:096	29	2	Reminder_Baseline_CSm	Baseline_CSm	0	5	0	0	0	0	5000	1	+	-10	3	Cue17.jpg	-10	3	Target17.jpg	-10
6	2023-03-30	12:40:30	12:51:37	12:51:37:746	29	3	Reminder_Baseline_CSm	valence	0	5	0	0	31	0	2623	1	I found these images to be...	-16	0	0	0	0	0	0
6	2023-03-30	12:40:30	12:51:44	12:51:44:096	29	4	Reminder_Baseline_CSm	expectancy	0	1500	0	0	39	0	6276	1	When you saw the <b>object-scene</b>,   to what <b>degree (0-100%)</b> did you expect the <b>unpleasant sound to occur</b>?	0	0	0	0	0	0	0
6	2023-03-30	12:40:30	12:51:47	12:51:47:081	30	1	Reminder_Think_CSm	fixation	0	5	1500	0	0	1	1495	1	+	-9	0	0	0	0	0	0
6	2023-03-30	12:40:30	12:51:52	12:51:52:098	30	2	Reminder_Think_CSm	Think_CSm	0	5	0	0	0	0	5000	1	+	-16	6	Cue35.jpg	-16	6	Target35.jpg	-16
6	2023-03-30	12:40:30	12:51:56	12:51:56:880	30	3	Reminder_Think_CSm	valence	0	5	0	0	25	0	4758	1	I found these images to be...	-16	0	0	0	0	0	0
6	2023-03-30	12:40:30	12:52:07	12:52:07:097	30	4	Reminder_Think_CSm	expectancy	0	1500	0	0	36	0	10150	1	When you saw the <b>object-scene</b>,   to what <b>degree (0-100%)</b> did you expect the <b>unpleasant sound to occur</b>?	0	0	0	0	0	0	0
6	2023-03-30	12:40:30	12:52:09	12:52:09:081	31	1	Reminder_NoThink_CSm	fixation	0	5	500	0	0	1	495	1	+	-10	0	0	0	0	0	0
6	2023-03-30	12:40:30	12:52:14	12:52:14:099	31	2	Reminder_NoThink_CSm	NoThink_CSm	0	5	0	0	0	0	5000	1	+	-16	5	Cue24.jpg	-16	5	Target24.jpg	-16
6	2023-03-30	12:40:30	12:52:17	12:52:17:565	31	3	Reminder_NoThink_CSm	valence	0	5	0	0	15	0	3413	1	I found these images to be...	-16	0	0	0	0	0	0
6	2023-03-30	12:40:30	12:52:21	12:52:21:648	31	4	Reminder_NoThink_CSm	expectancy	0	500	0	0	50	0	4017	1	When you saw the <b>object-scene</b>,   to what <b>degree (0-100%)</b> did you expect the <b>unpleasant sound to occur</b>?	-9	0	0	0	0	0	0
6	2023-03-30	12:40:30	12:52:22	12:52:22:633	32	1	Reminder_Think_CSp	fixation	0	5	500	0	0	1	495	1	+	-10	0	0	0	0	0	0
6	2023-03-30	12:40:30	12:52:27	12:52:27:651	32	2	Reminder_Think_CSp	Think_CSp	0	5	0	0	0	0	5000	1	+	-16	1	Cue15.jpg	-16	1	Target15.jpg	-16
6	2023-03-30	12:40:30	12:52:31	12:52:31:516	32	3	Reminder_Think_CSp	valence	0	5	0	0	28	0	3838	1	I found these images to be...	-16	0	0	0	0	0	0
6	2023-03-30	12:40:30	12:52:56	12:52:56:851	32	4	Reminder_Think_CSp	expectancy	0	1000	0	0	50	0	25266	1	When you saw the <b>object-scene</b>,   to what <b>degree (0-100%)</b> did you expect the <b>unpleasant sound to occur</b>?	0	0	0	0	0	0	0
6	2023-03-30	12:40:30	12:52:59	12:52:59:335	33	1	Reminder_Baseline_CSp	fixation	0	5	1500	0	0	1	1495	1	+	-13	0	0	0	0	0	0
6	2023-03-30	12:40:30	12:53:04	12:53:04:351	33	2	Reminder_Baseline_CSp	Baseline_CSp	0	5	0	0	0	0	5000	1	+	-16	2	Cue2.jpg	-16	2	Target2.jpg	-16
6	2023-03-30	12:40:30	12:53:06	12:53:06:351	33	3	Reminder_Baseline_CSp	valence	0	5	0	0	30	0	1976	1	I found these images to be...	-16	0	0	0	0	0	0
6	2023-03-30	12:40:30	12:53:10	12:53:10:702	33	4	Reminder_Baseline_CSp	expectancy	0	1000	0	0	100	0	4303	1	When you saw the <b>object-scene</b>,   to what <b>degree (0-100%)</b> did you expect the <b>unpleasant sound to occur</b>?	-12	0	0	0	0	0	0
6	2023-03-30	12:40:30	12:53:12	12:53:12:702	34	1	Reminder_Think_CSm	fixation	0	5	1000	0	0	1	995	1	+	-13	0	0	0	0	0	0
6	2023-03-30	12:40:30	12:53:17	12:53:17:721	34	2	Reminder_Think_CSm	Think_CSm	0	5	0	0	0	0	5000	1	+	-16	4	Cue20.jpg	-16	4	Target20.jpg	-16
6	2023-03-30	12:40:30	12:53:19	12:53:19:702	34	3	Reminder_Think_CSm	valence	0	5	0	0	20	0	1928	1	I found these images to be...	-16	0	0	0	0	0	0
6	2023-03-30	12:40:30	12:53:24	12:53:24:953	34	4	Reminder_Think_CSm	expectancy	0	500	0	0	8	0	5208	1	When you saw the <b>object-scene</b>,   to what <b>degree (0-100%)</b> did you expect the <b>unpleasant sound to occur</b>?	-8	0	0	0	0	0	0
6	2023-03-30	12:40:30	12:53:26	12:53:26:952	35	1	Reminder_Baseline_CSp	fixation	0	5	1500	0	0	1	1495	1	+	-13	0	0	0	0	0	0
6	2023-03-30	12:40:30	12:53:31	12:53:31:970	35	2	Reminder_Baseline_CSp	Baseline_CSp	0	5	0	0	0	0	5000	1	+	-16	6	Cue36.jpg	-16	6	Target36.jpg	-16
6	2023-03-30	12:40:30	12:53:35	12:53:35:020	35	3	Reminder_Baseline_CSp	valence	0	5	0	0	44	0	3029	1	I found these images to be...	-16	0	0	0	0	0	0
6	2023-03-30	12:40:30	12:53:42	12:53:42:520	35	4	Reminder_Baseline_CSp	expectancy	0	1500	0	0	42	0	7459	1	When you saw the <b>object-scene</b>,   to what <b>degree (0-100%)</b> did you expect the <b>unpleasant sound to occur</b>?	-12	0	0	0	0	0	0
6	2023-03-30	12:40:30	12:53:45	12:53:45:020	36	1	PracticeItems_NoThink	fixation	0	5	1000	0	0	1	995	1	+	-13	0	0	0	0	0	0
6	2023-03-30	12:40:30	12:53:50	12:53:50:038	36	2	PracticeItems_NoThink	PracticeItems_NoThink	0	5	0	0	0	0	5000	1	+	-16	1	Cue39.jpg	-16	1	Target39.jpg	-16
6	2023-03-30	12:40:30	12:53:53	12:53:53:022	36	3	PracticeItems_NoThink	valence	0	5	0	0	23	0	2954	1	I found these images to be...	-16	0	0	0	0	0	0
6	2023-03-30	12:40:30	12:53:57	12:53:57:921	36	4	PracticeItems_NoThink	expectancy	0	500	0	0	93	0	4858	1	When you saw the <b>object-scene</b>,   to what <b>degree (0-100%)</b> did you expect the <b>unpleasant sound to occur</b>?	-11	0	0	0	0	0	0
6	2023-03-30	12:40:30	12:53:58	12:53:58:921	37	1	Reminder_Objects_CSp	fixation	0	5	500	0	0	1	495	1	+	-13	0	0	0	0	0	0
6	2023-03-30	12:40:30	12:54:03	12:54:03:940	37	2	Reminder_Objects_CSp	Objects_CSp	0	5	0	0	0	0	5000	4	Object7.jpg	-16	0	0	0	0	0	0
6	2023-03-30	12:40:30	12:54:05	12:54:05:572	37	3	Reminder_Objects_CSp	expectancy_object	0	1000	0	0	50	0	1605	1	When you saw the <b>object</b>,   to what <b>degree (0-100%)</b> did you expect the <b>unpleasant sound to occur</b>?	-16	0	0	0	0	0	0
6	2023-03-30	12:40:30	12:54:08	12:54:08:074	38	1	Reminder_Objects_CSp	fixation	0	5	1500	0	0	1	1495	1	+	-7	0	0	0	0	0	0
6	2023-03-30	12:40:30	12:54:13	12:54:13:090	38	2	Reminder_Objects_CSp	Objects_CSp	0	5	0	0	0	0	5000	3	Object6.jpg	-16	0	0	0	0	0	0
6	2023-03-30	12:40:30	12:54:16	12:54:16:539	38	3	Reminder_Objects_CSp	expectancy_object	0	1500	0	0	80	0	3398	1	When you saw the <b>object</b>,   to what <b>degree (0-100%)</b> did you expect the <b>unpleasant sound to occur</b>?	-16	0	0	0	0	0	0
6	2023-03-30	12:40:30	12:54:18	12:54:18:525	39	1	Reminder_Baseline_CSp	fixation	0	5	500	0	0	1	495	1	+	-9	0	0	0	0	0	0
6	2023-03-30	12:40:30	12:54:23	12:54:23:542	39	2	Reminder_Baseline_CSp	Baseline_CSp	0	5	0	0	0	0	5000	1	+	-16	1	Cue5.jpg	-16	1	Target5.jpg	-16
6	2023-03-30	12:40:30	12:54:25	12:54:25:823	39	3	Reminder_Baseline_CSp	valence	0	5	0	0	40	0	2252	1	I found these images to be...	-16	0	0	0	0	0	0
6	2023-03-30	12:40:30	12:54:35	12:54:35:723	39	4	Reminder_Baseline_CSp	expectancy	0	1500	0	0	80	0	9856	1	When you saw the <b>object-scene</b>,   to what <b>degree (0-100%)</b> did you expect the <b>unpleasant sound to occur</b>?	0	0	0	0	0	0	0
6	2023-03-30	12:40:30	12:54:38	12:54:38:222	40	1	Reminder_NoThink_CSm	fixation	0	5	1000	0	0	1	995	1	+	-13	0	0	0	0	0	0
6	2023-03-30	12:40:30	12:54:43	12:54:43:240	40	2	Reminder_NoThink_CSm	NoThink_CSm	0	5	0	0	0	0	5000	1	+	-11	1	Cue13.jpg	-11	1	Target13.jpg	-11
6	2023-03-30	12:40:30	12:54:45	12:54:45:974	40	3	Reminder_NoThink_CSm	valence	0	5	0	0	30	0	2711	1	I found these images to be...	-16	0	0	0	0	0	0
6	2023-03-30	12:40:30	12:54:51	12:54:51:090	40	4	Reminder_NoThink_CSm	expectancy	0	1000	0	0	70	0	5049	1	When you saw the <b>object-scene</b>,   to what <b>degree (0-100%)</b> did you expect the <b>unpleasant sound to occur</b>?	-10	0	0	0	0	0	0
6	2023-03-30	12:40:30	12:54:52	12:54:52:575	41	1	Reminder_Baseline_CSm	fixation	0	5	500	0	0	1	495	1	+	-13	0	0	0	0	0	0
6	2023-03-30	12:40:30	12:54:57	12:54:57:594	41	2	Reminder_Baseline_CSm	Baseline_CSm	0	5	0	0	0	0	5000	1	+	-16	4	Cue26.jpg	-16	4	Target26.jpg	-16
6	2023-03-30	12:40:30	12:55:00	12:55:00:592	41	3	Reminder_Baseline_CSm	valence	0	5	0	0	58	0	2976	1	I found these images to be...	-16	0	0	0	0	0	0
6	2023-03-30	12:40:30	12:55:07	12:55:07:509	41	4	Reminder_Baseline_CSm	expectancy	0	1500	0	0	20	0	6871	1	When you saw the <b>object-scene</b>,   to what <b>degree (0-100%)</b> did you expect the <b>unpleasant sound to occur</b>?	0	0	0	0	0	0	0
6	2023-03-30	12:40:30	12:55:10	12:55:10:011	42	1	Reminder_Baseline_CSp	fixation	0	5	1000	0	0	1	995	1	+	-9	0	0	0	0	0	0
6	2023-03-30	12:40:30	12:55:15	12:55:15:028	42	2	Reminder_Baseline_CSp	Baseline_CSp	0	5	0	0	0	0	5000	1	+	-16	4	Cue18.jpg	-16	4	Target18.jpg	-16
6	2023-03-30	12:40:30	12:55:17	12:55:17:309	42	3	Reminder_Baseline_CSp	valence	0	5	0	0	10	0	2229	1	I found these images to be...	-16	0	0	0	0	0	0
6	2023-03-30	12:40:30	12:55:28	12:55:28:676	42	4	Reminder_Baseline_CSp	expectancy	0	1000	0	0	50	0	11281	1	When you saw the <b>object-scene</b>,   to what <b>degree (0-100%)</b> did you expect the <b>unpleasant sound to occur</b>?	-7	0	0	0	0	0	0
6	2023-03-30	12:40:30	12:55:31	12:55:31:158	43	1	Reminder_Objects_CSm	fixation	0	5	1500	0	0	1	1495	1	+	-12	0	0	0	0	0	0
6	2023-03-30	12:40:30	12:55:36	12:55:36:177	43	2	Reminder_Objects_CSm	Objects_CSm	0	5	0	0	0	0	5000	2	Object1.jpg	-12	0	0	0	0	0	0
6	2023-03-30	12:40:30	12:55:39	12:55:39:027	43	3	Reminder_Objects_CSm	expectancy_object	0	1500	0	0	40	0	2798	1	When you saw the <b>object</b>,   to what <b>degree (0-100%)</b> did you expect the <b>unpleasant sound to occur</b>?	-16	0	0	0	0	0	0
6	2023-03-30	12:40:30	12:55:42	12:55:42:011	44	1	Reminder_Baseline_CSp	fixation	0	5	1500	0	0	1	1495	1	+	-12	0	0	0	0	0	0
6	2023-03-30	12:40:30	12:55:47	12:55:47:030	44	2	Reminder_Baseline_CSp	Baseline_CSp	0	5	0	0	0	0	5000	1	+	-16	3	Cue16.jpg	-16	3	Target16.jpg	-16
6	2023-03-30	12:40:30	12:55:51	12:55:51:761	44	3	Reminder_Baseline_CSp	valence	0	5	0	0	50	0	4675	1	I found these images to be...	-16	0	0	0	0	0	0
6	2023-03-30	12:40:30	12:56:01	12:56:01:595	44	4	Reminder_Baseline_CSp	expectancy	0	500	0	0	36	0	9765	1	When you saw the <b>object-scene</b>,   to what <b>degree (0-100%)</b> did you expect the <b>unpleasant sound to occur</b>?	-8	0	0	0	0	0	0
6	2023-03-30	12:40:30	12:56:02	12:56:02:581	45	1	Reminder_Objects_CSm	fixation	0	5	500	0	0	1	495	1	+	-8	0	0	0	0	0	0
6	2023-03-30	12:40:30	12:56:07	12:56:07:597	45	2	Reminder_Objects_CSm	Objects_CSm	0	5	0	0	0	0	5000	4	Object5.jpg	-16	0	0	0	0	0	0
6	2023-03-30	12:40:30	12:56:12	12:56:12:462	45	3	Reminder_Objects_CSm	expectancy_object	0	1000	0	0	50	0	4835	1	When you saw the <b>object</b>,   to what <b>degree (0-100%)</b> did you expect the <b>unpleasant sound to occur</b>?	-16	0	0	0	0	0	0
6	2023-03-30	12:40:30	12:56:14	12:56:14:464	46	1	Reminder_NoThink_CSp	fixation	0	5	1000	0	0	1	995	1	+	-8	0	0	0	0	0	0
6	2023-03-30	12:40:30	12:56:19	12:56:19:482	46	2	Reminder_NoThink_CSp	NoThink_CSp	0	5	0	0	0	0	5000	1	+	-16	2	Cue34.jpg	-16	2	Target34.jpg	-16
6	2023-03-30	12:40:30	12:56:23	12:56:23:430	46	3	Reminder_NoThink_CSp	valence	0	5	0	0	21	0	3919	1	I found these images to be...	-16	0	0	0	0	0	0
6	2023-03-30	12:40:30	12:56:28	12:56:28:780	46	4	Reminder_NoThink_CSp	expectancy	0	500	0	0	70	0	5313	1	When you saw the <b>object-scene</b>,   to what <b>degree (0-100%)</b> did you expect the <b>unpleasant sound to occur</b>?	0	0	0	0	0	0	0
6	2023-03-30	12:40:30	12:56:30	12:56:30:780	47	1	Reminder_Think_CSm	fixation	0	5	1500	0	0	1	1495	1	+	-13	0	0	0	0	0	0
6	2023-03-30	12:40:30	12:56:35	12:56:35:799	47	2	Reminder_Think_CSm	Think_CSm	0	5	0	0	0	0	5000	1	+	-16	5	Cue31.jpg	-16	5	Target31.jpg	-16
6	2023-03-30	12:40:30	12:56:39	12:56:39:443	47	3	Reminder_Think_CSm	valence	0	5	0	0	20	0	3594	1	I found these images to be...	-16	0	0	0	0	0	0
6	2023-03-30	12:40:30	12:56:47	12:56:47:264	47	4	Reminder_Think_CSm	expectancy	0	1500	0	0	20	0	7768	1	When you saw the <b>object-scene</b>,   to what <b>degree (0-100%)</b> did you expect the <b>unpleasant sound to occur</b>?	0	0	0	0	0	0	0
6	2023-03-30	12:40:30	12:56:49	12:56:49:248	48	1	Reminder_Think_CSp	fixation	0	5	500	0	0	1	495	1	+	-13	0	0	0	0	0	0
6	2023-03-30	12:40:30	12:56:54	12:56:54:265	48	2	Reminder_Think_CSp	Think_CSp	0	5	0	0	0	0	5000	1	+	-16	2	Cue10.jpg	-16	2	Target10.jpg	-16
6	2023-03-30	12:40:30	12:56:58	12:56:58:731	48	3	Reminder_Think_CSp	valence	0	5	0	0	32	0	4438	1	I found these images to be...	-16	0	0	0	0	0	0
6	2023-03-30	12:40:30	12:57:02	12:57:02:916	48	4	Reminder_Think_CSp	expectancy	0	1000	0	0	68	0	4139	1	When you saw the <b>object-scene</b>,   to what <b>degree (0-100%)</b> did you expect the <b>unpleasant sound to occur</b>?	-10	0	0	0	0	0	0
6	2023-03-30	12:40:30	12:57:04	12:57:04:915	49	1	Reminder_NoThink_CSm	fixation	0	5	1000	0	0	1	995	1	+	-12	0	0	0	0	0	0
6	2023-03-30	12:40:30	12:57:09	12:57:09:932	49	2	Reminder_NoThink_CSm	NoThink_CSm	0	5	0	0	0	0	5000	1	+	-16	4	Cue32.jpg	-16	4	Target32.jpg	-16
6	2023-03-30	12:40:30	12:57:15	12:57:15:732	49	3	Reminder_NoThink_CSm	valence	0	5	0	0	24	0	5771	1	I found these images to be...	-16	0	0	0	0	0	0
6	2023-03-30	12:40:30	12:57:20	12:57:20:866	49	4	Reminder_NoThink_CSm	expectancy	0	500	0	0	64	0	5090	1	When you saw the <b>object-scene</b>,   to what <b>degree (0-100%)</b> did you expect the <b>unpleasant sound to occur</b>?	-9	0	0	0	0	0	0
6	2023-03-30	12:40:30	13:05:26	13:05:26:505	2	1	Practice_NoThink	fixation	0	5	500	0	0	1	495	1	+	-16	0	0	0	0	0	0
6	2023-03-30	12:40:30	13:05:27	13:05:27:520	2	2	Practice_NoThink	NoThink	0	5	0	0	0	0	1000	1	DON'T THINK	-16	0	0	0	0	0	0
6	2023-03-30	12:40:30	13:05:32	13:05:32:536	2	3	Practice_NoThink	NoThinkCue	0	5	0	0	0	1	5000	1	Cue39.jpg	-16	0	0	0	0	0	0
6	2023-03-30	12:40:30	13:05:34	13:05:34:362	2	4	Practice_NoThink	Intrusion	0	500	3000	0	3	1	1792	1	How <b>often</b> did you <b>think</b> about the <b>scene</b>?   <center><br><b>NEVER (1)    BRIEFLY (2)   OFTEN (3) </b>	-14	0	0	0	0	0	0
6	2023-03-30	12:40:30	13:05:37	13:05:37:040	3	1	Practice_NoThink	fixation	0	5	1500	0	0	1	1495	1	+	-9	0	0	0	0	0	0
6	2023-03-30	12:40:30	13:05:38	13:05:38:053	3	2	Practice_NoThink	NoThink	0	5	0	0	0	0	1000	1	DON'T THINK	-16	0	0	0	0	0	0
6	2023-03-30	12:40:30	13:05:43	13:05:43:070	3	3	Practice_NoThink	NoThinkCue	0	5	0	0	0	1	5000	2	Cue40.jpg	-16	0	0	0	0	0	0
6	2023-03-30	12:40:30	13:05:44	13:05:44:962	3	4	Practice_NoThink	Intrusion	0	1500	3000	0	2	1	875	1	How <b>often</b> did you <b>think</b> about the <b>scene</b>?   <center><br><b>NEVER (1)    BRIEFLY (2)   OFTEN (3) </b>	-16	0	0	0	0	0	0
6	2023-03-30	12:40:30	13:05:47	13:05:47:074	4	1	Practice_Think	fixation	0	5	1000	0	0	1	995	1	+	-7	0	0	0	0	0	0
6	2023-03-30	12:40:30	13:05:48	13:05:48:087	4	2	Practice_Think	Think	0	5	0	0	0	0	1000	1	THINK	-16	0	0	0	0	0	0
6	2023-03-30	12:40:30	13:05:53	13:05:53:104	4	3	Practice_Think	ThinkCue	0	5	0	0	0	1	5000	1	Cue37.jpg	-16	0	0	0	0	0	0
6	2023-03-30	12:40:30	13:05:55	13:05:55:111	4	4	Practice_Think	Intrusion	0	1000	3000	0	0	0	2000	1	How <b>often</b> did you <b>think</b> about the <b>scene</b>?   <center><br><b>NEVER (1)    BRIEFLY (2)   OFTEN (3) </b>	-16	0	0	0	0	0	0
6	2023-03-30	12:40:30	13:05:56	13:05:56:608	5	1	Practice_Think	fixation	0	5	500	0	0	1	495	1	+	-9	0	0	0	0	0	0
6	2023-03-30	12:40:30	13:05:57	13:05:57:621	5	2	Practice_Think	Think	0	5	0	0	0	0	1000	1	THINK	-16	0	0	0	0	0	0
6	2023-03-30	12:40:30	13:06:02	13:06:02:638	5	3	Practice_Think	ThinkCue	0	5	0	0	0	1	5000	2	Cue38.jpg	-16	0	0	0	0	0	0
6	2023-03-30	12:40:30	13:06:03	13:06:03:642	5	4	Practice_Think	Intrusion	0	1000	3000	0	4	1	987	1	How <b>often</b> did you <b>think</b> about the <b>scene</b>?   <center><br><b>NEVER (1)    BRIEFLY (2)   OFTEN (3) </b>	-16	0	0	0	0	0	0
6	2023-03-30	12:40:30	13:11:37	13:11:37:353	6	1	Practice_Betweenblocks1	Practice_Betweenblocks1	0	5	0	0	57	1	331681	1	<center><br><br><br><br>This is the end of the first practice round. <br><br>There will be 2 more practice rounds.  <br><br> Please await further instruction from the experimenter.	-16	0	0	0	0	0	0
6	2023-03-30	12:40:30	13:11:38	13:11:38:355	7	1	Practice_NoThink	fixation	0	5	1000	0	0	1	995	1	+	-9	0	0	0	0	0	0
6	2023-03-30	12:40:30	13:11:39	13:11:39:375	7	2	Practice_NoThink	NoThink	0	5	0	0	0	0	1000	1	DON'T THINK	-9	0	0	0	0	0	0
6	2023-03-30	12:40:30	13:11:44	13:11:44:391	7	3	Practice_NoThink	NoThinkCue	0	5	0	0	0	1	5000	1	Cue39.jpg	-16	0	0	0	0	0	0
6	2023-03-30	12:40:30	13:11:45	13:11:45:498	7	4	Practice_NoThink	Intrusion	0	500	3000	0	3	1	1089	1	How <b>often</b> did you <b>think</b> about the <b>scene</b>?   <center><br><b>NEVER (1)    BRIEFLY (2)   OFTEN (3) </b>	-16	0	0	0	0	0	0
6	2023-03-30	12:40:30	13:11:49	13:11:49:895	8	1	Practice_Think	fixation	0	5	1500	0	0	1	1495	1	+	-9	0	0	0	0	0	0
6	2023-03-30	12:40:30	13:11:50	13:11:50:908	8	2	Practice_Think	Think	0	5	0	0	0	0	1000	1	THINK	-16	0	0	0	0	0	0
6	2023-03-30	12:40:30	13:11:55	13:11:55:925	8	3	Practice_Think	ThinkCue	0	5	0	0	0	1	5000	1	Cue37.jpg	-16	0	0	0	0	0	0
6	2023-03-30	12:40:30	13:11:56	13:11:56:433	8	4	Practice_Think	Intrusion	0	1500	3000	0	0	0	1500	1	How <b>often</b> did you <b>think</b> about the <b>scene</b>?   <center><br><b>NEVER (1)    BRIEFLY (2)   OFTEN (3) </b>	-16	0	0	0	0	0	0
6	2023-03-30	12:40:30	13:11:59	13:11:59:430	9	1	Practice_NoThink	fixation	0	5	1500	0	0	1	1495	1	+	-16	0	0	0	0	0	0
6	2023-03-30	12:40:30	13:12:00	13:12:00:442	9	2	Practice_NoThink	NoThink	0	5	0	0	0	0	1000	1	DON'T THINK	-16	0	0	0	0	0	0
6	2023-03-30	12:40:30	13:12:05	13:12:05:459	9	3	Practice_NoThink	NoThinkCue	0	5	0	0	0	1	5000	2	Cue40.jpg	-16	0	0	0	0	0	0
6	2023-03-30	12:40:30	13:12:06	13:12:06:537	9	4	Practice_NoThink	Intrusion	0	1500	3000	0	3	1	1060	1	How <b>often</b> did you <b>think</b> about the <b>scene</b>?   <center><br><b>NEVER (1)    BRIEFLY (2)   OFTEN (3) </b>	-16	0	0	0	0	0	0
6	2023-03-30	12:40:30	13:12:09	13:12:09:463	10	1	Practice_Think	fixation	0	5	1000	0	0	1	995	1	+	-8	0	0	0	0	0	0
6	2023-03-30	12:40:30	13:12:10	13:12:10:476	10	2	Practice_Think	Think	0	5	0	0	0	0	1000	1	THINK	-16	0	0	0	0	0	0
6	2023-03-30	12:40:30	13:12:15	13:12:15:493	10	3	Practice_Think	ThinkCue	0	5	0	0	0	1	5000	2	Cue38.jpg	-16	0	0	0	0	0	0
6	2023-03-30	12:40:30	13:12:16	13:12:16:490	10	4	Practice_Think	Intrusion	0	500	3000	0	4	1	978	1	How <b>often</b> did you <b>think</b> about the <b>scene</b>?   <center><br><b>NEVER (1)    BRIEFLY (2)   OFTEN (3) </b>	-16	0	0	0	0	0	0
6	2023-03-30	12:40:30	13:14:16	13:14:16:169	11	1	Practice_Betweenblocks2	Practice_Betweenblocks2	0	5	0	0	57	1	117625	1	<center><br><br><br><br>This is the end of the second practice round. <br><br>There will be 1 more practice round.  <br><br> Please await further instruction from the experimenter.	-8	0	0	0	0	0	0
6	2023-03-30	12:40:30	13:14:17	13:14:17:670	12	1	Practice_Think	fixation	0	5	500	0	0	1	495	1	+	-9	0	0	0	0	0	0
6	2023-03-30	12:40:30	13:14:18	13:14:18:684	12	2	Practice_Think	Think	0	5	0	0	0	0	1000	1	THINK	-16	0	0	0	0	0	0
6	2023-03-30	12:40:30	13:14:23	13:14:23:701	12	3	Practice_Think	ThinkCue	0	5	0	0	0	1	5000	1	Cue37.jpg	-16	0	0	0	0	0	0
6	2023-03-30	12:40:30	13:14:24	13:14:24:489	12	4	Practice_Think	Intrusion	0	1000	3000	0	4	1	1771	1	How <b>often</b> did you <b>think</b> about the <b>scene</b>?   <center><br><b>NEVER (1)    BRIEFLY (2)   OFTEN (3) </b>	-16	0	0	0	0	0	0
6	2023-03-30	12:40:30	13:14:26	13:14:26:205	13	1	Practice_NoThink	fixation	0	5	500	0	0	1	495	1	+	-8	0	0	0	0	0	0
6	2023-03-30	12:40:30	13:14:27	13:14:27:218	13	2	Practice_NoThink	NoThink	0	5	0	0	0	0	1000	1	DON'T THINK	-16	0	0	0	0	0	0
6	2023-03-30	12:40:30	13:14:32	13:14:32:234	13	3	Practice_NoThink	NoThinkCue	0	5	0	0	0	1	5000	1	Cue39.jpg	-16	0	0	0	0	0	0
6	2023-03-30	12:40:30	13:14:34	13:14:34:929	13	4	Practice_NoThink	Intrusion	0	500	3000	0	3	1	1677	1	How <b>often</b> did you <b>think</b> about the <b>scene</b>?   <center><br><b>NEVER (1)    BRIEFLY (2)   OFTEN (3) </b>	-16	0	0	0	0	0	0
6	2023-03-30	12:40:30	13:14:36	13:14:36:238	14	1	Practice_Think	fixation	0	5	1000	0	0	1	995	1	+	-9	0	0	0	0	0	0
6	2023-03-30	12:40:30	13:14:37	13:14:37:251	14	2	Practice_Think	Think	0	5	0	0	0	0	1000	1	THINK	-16	0	0	0	0	0	0
6	2023-03-30	12:40:30	13:14:42	13:14:42:269	14	3	Practice_Think	ThinkCue	0	5	0	0	0	1	5000	2	Cue38.jpg	-16	0	0	0	0	0	0
6	2023-03-30	12:40:30	13:14:43	13:14:43:529	14	4	Practice_Think	Intrusion	0	1000	3000	0	4	1	1243	1	How <b>often</b> did you <b>think</b> about the <b>scene</b>?   <center><br><b>NEVER (1)    BRIEFLY (2)   OFTEN (3) </b>	-16	0	0	0	0	0	0
6	2023-03-30	12:40:30	13:14:47	13:14:47:773	15	1	Practice_NoThink	fixation	0	5	1500	0	0	1	1495	1	+	-16	0	0	0	0	0	0
6	2023-03-30	12:40:30	13:14:48	13:14:48:786	15	2	Practice_NoThink	NoThink	0	5	0	0	0	0	1000	1	DON'T THINK	-16	0	0	0	0	0	0
6	2023-03-30	12:40:30	13:14:53	13:14:53:803	15	3	Practice_NoThink	NoThinkCue	0	5	0	0	0	1	5000	2	Cue40.jpg	-16	0	0	0	0	0	0
6	2023-03-30	12:40:30	13:14:54	13:14:54:309	15	4	Practice_NoThink	Intrusion	0	1500	3000	0	0	0	1500	1	How <b>often</b> did you <b>think</b> about the <b>scene</b>?   <center><br><b>NEVER (1)    BRIEFLY (2)   OFTEN (3) </b>	-16	0	0	0	0	0	0
6	2023-03-30	12:40:30	13:17:10	13:17:10:502	2	1	TNT_Think_CSm	fixation	0	5	1500	0	0	1	1495	1	+	-8	0	0	0	0	0	0
6	2023-03-30	12:40:30	13:17:11	13:17:11:518	2	2	TNT_Think_CSm	Think	0	5	0	0	0	0	1000	1	THINK	-16	0	0	0	0	0	0
6	2023-03-30	12:40:30	13:17:16	13:17:16:535	2	3	TNT_Think_CSm	TNT_Think_CSm	0	5	0	0	0	0	5000	1	Cue14.jpg	-16	0	0	0	0	0	0
6	2023-03-30	12:40:30	13:17:18	13:17:18:922	2	4	TNT_Think_CSm	Intrusion	0	1000	3000	0	4	1	1369	1	How <b>often</b> did you <b>think</b> about the <b>scene</b>?   <center><br><b>NEVER (1)    BRIEFLY (2)   OFTEN (3) </b>	-16	0	0	0	0	0	0
6	2023-03-30	12:40:30	13:17:20	13:17:20:539	3	1	TNT_Think_CSp	fixation	0	5	1000	0	0	1	995	1	+	-8	0	0	0	0	0	0
6	2023-03-30	12:40:30	13:17:21	13:17:21:552	3	2	TNT_Think_CSp	Think	0	5	0	0	0	0	1000	1	THINK	-16	0	0	0	0	0	0
6	2023-03-30	12:40:30	13:17:26	13:17:26:569	3	3	TNT_Think_CSp	TNT_Think_CSp	0	5	0	0	0	0	5000	6	Cue29.jpg	-16	0	0	0	0	0	0
6	2023-03-30	12:40:30	13:17:28	13:17:28:578	3	4	TNT_Think_CSp	Intrusion	0	500	3000	0	4	1	1991	1	How <b>often</b> did you <b>think</b> about the <b>scene</b>?   <center><br><b>NEVER (1)    BRIEFLY (2)   OFTEN (3) </b>	-16	0	0	0	0	0	0
6	2023-03-30	12:40:30	13:17:30	13:17:30:073	4	1	TNT_Think_CSp	fixation	0	5	500	0	0	1	495	1	+	-8	0	0	0	0	0	0
6	2023-03-30	12:40:30	13:17:31	13:17:31:086	4	2	TNT_Think_CSp	Think	0	5	0	0	0	0	1000	1	THINK	-16	0	0	0	0	0	0
6	2023-03-30	12:40:30	13:17:36	13:17:36:103	4	3	TNT_Think_CSp	TNT_Think_CSp	0	5	0	0	0	0	5000	3	Cue25.jpg	-16	0	0	0	0	0	0
6	2023-03-30	12:40:30	13:17:37	13:17:37:611	4	4	TNT_Think_CSp	Intrusion	0	1500	3000	0	0	0	1500	1	How <b>often</b> did you <b>think</b> about the <b>scene</b>?   <center><br><b>NEVER (1)    BRIEFLY (2)   OFTEN (3) </b>	-16	0	0	0	0	0	0
6	2023-03-30	12:40:30	13:17:39	13:17:39:607	5	1	TNT_NoThink_CSm	fixation	0	5	500	0	0	1	495	1	+	-9	0	0	0	0	0	0
6	2023-03-30	12:40:30	13:17:40	13:17:40:620	5	2	TNT_NoThink_CSm	NoThink	0	5	0	0	0	0	1000	1	DON'T THINK	-16	0	0	0	0	0	0
6	2023-03-30	12:40:30	13:17:45	13:17:45:637	5	3	TNT_NoThink_CSm	TNT_NoThink_CSm	0	5	0	0	0	0	5000	5	Cue24.jpg	-16	0	0	0	0	0	0
6	2023-03-30	12:40:30	13:17:47	13:17:47:145	5	4	TNT_NoThink_CSm	Intrusion	0	1500	3000	0	0	0	1500	1	How <b>often</b> did you <b>think</b> about the <b>scene</b>?   <center><br><b>NEVER (1)    BRIEFLY (2)   OFTEN (3) </b>	-16	0	0	0	0	0	0
6	2023-03-30	12:40:30	13:17:49	13:17:49:640	6	1	TNT_Think_CSp	fixation	0	5	1000	0	0	1	995	1	+	-9	0	0	0	0	0	0
6	2023-03-30	12:40:30	13:17:50	13:17:50:654	6	2	TNT_Think_CSp	Think	0	5	0	0	0	0	1000	1	THINK	-16	0	0	0	0	0	0
6	2023-03-30	12:40:30	13:17:55	13:17:55:671	6	3	TNT_Think_CSp	TNT_Think_CSp	0	5	0	0	0	0	5000	2	Cue10.jpg	-16	0	0	0	0	0	0
6	2023-03-30	12:40:30	13:17:57	13:17:57:834	6	4	TNT_Think_CSp	Intrusion	0	1000	3000	0	4	1	1146	1	How <b>often</b> did you <b>think</b> about the <b>scene</b>?   <center><br><b>NEVER (1)    BRIEFLY (2)   OFTEN (3) </b>	-16	0	0	0	0	0	0
6	2023-03-30	12:40:30	13:18:00	13:18:00:175	7	1	TNT_Object_CSp	fixation	0	5	1500	0	0	1	1495	1	+	-9	0	0	0	0	0	0
6	2023-03-30	12:40:30	13:18:01	13:18:01:188	7	2	TNT_Object_CSp	Passive	0	5	0	0	0	0	1000	1	VIEW	-16	0	0	0	0	0	0
6	2023-03-30	12:40:30	13:18:06	13:18:06:205	7	3	TNT_Object_CSp	TNT_Object_CSp	0	1000	0	0	0	0	5000	3	Object6.jpg	-16	0	0	0	0	0	0
6	2023-03-30	12:40:30	13:18:08	13:18:08:704	8	1	TNT_Think_CSp	fixation	0	5	500	0	0	1	495	1	+	-6	0	0	0	0	0	0
6	2023-03-30	12:40:30	13:18:09	13:18:09:722	8	2	TNT_Think_CSp	Think	0	5	0	0	0	0	1000	1	THINK	-16	0	0	0	0	0	0
6	2023-03-30	12:40:30	13:18:14	13:18:14:739	8	3	TNT_Think_CSp	TNT_Think_CSp	0	5	0	0	0	0	5000	1	Cue15.jpg	-16	0	0	0	0	0	0
6	2023-03-30	12:40:30	13:18:16	13:18:16:246	8	4	TNT_Think_CSp	Intrusion	0	500	3000	0	0	0	2500	1	How <b>often</b> did you <b>think</b> about the <b>scene</b>?   <center><br><b>NEVER (1)    BRIEFLY (2)   OFTEN (3) </b>	-16	0	0	0	0	0	0
6	2023-03-30	12:40:30	13:18:18	13:18:18:243	9	1	TNT_Object_CSm	fixation	0	5	1500	0	0	1	1495	1	+	-16	0	0	0	0	0	0
6	2023-03-30	12:40:30	13:18:19	13:18:19:256	9	2	TNT_Object_CSm	Passive	0	5	0	0	0	0	1000	1	VIEW	-16	0	0	0	0	0	0
6	2023-03-30	12:40:30	13:18:24	13:18:24:273	9	3	TNT_Object_CSm	TNT_Object_CSm	0	1500	0	0	0	0	5000	3	Object8.jpg	-16	0	0	0	0	0	0
6	2023-03-30	12:40:30	13:18:27	13:18:27:772	10	1	TNT_NoThink_CSm	fixation	0	5	1000	0	0	1	995	1	+	-8	0	0	0	0	0	0
6	2023-03-30	12:40:30	13:18:28	13:18:28:790	10	2	TNT_NoThink_CSm	NoThink	0	5	0	0	0	0	1000	1	DON'T THINK	-16	0	0	0	0	0	0
6	2023-03-30	12:40:30	13:18:33	13:18:33:806	10	3	TNT_NoThink_CSm	TNT_NoThink_CSm	0	5	0	0	0	0	5000	2	Cue7.jpg	-16	0	0	0	0	0	0
6	2023-03-30	12:40:30	13:18:33	13:18:33:698	10	4	TNT_NoThink_CSm	Intrusion	0	1000	3000	0	3	1	874	1	How <b>often</b> did you <b>think</b> about the <b>scene</b>?   <center><br><b>NEVER (1)    BRIEFLY (2)   OFTEN (3) </b>	-16	0	0	0	0	0	0
6	2023-03-30	12:40:30	13:18:37	13:18:37:811	11	1	TNT_NoThink_CSp	fixation	0	5	1000	0	0	1	995	1	+	-8	0	0	0	0	0	0
6	2023-03-30	12:40:30	13:18:38	13:18:38:824	11	2	TNT_NoThink_CSp	NoThink	0	5	0	0	0	0	1000	1	DON'T THINK	-16	0	0	0	0	0	0
6	2023-03-30	12:40:30	13:18:43	13:18:43:841	11	3	TNT_NoThink_CSp	TNT_NoThink_CSp	0	5	0	0	0	0	5000	5	Cue11.jpg	-16	0	0	0	0	0	0
6	2023-03-30	12:40:30	13:18:44	13:18:44:874	11	4	TNT_NoThink_CSp	Intrusion	0	1500	3000	0	2	1	1016	1	How <b>often</b> did you <b>think</b> about the <b>scene</b>?   <center><br><b>NEVER (1)    BRIEFLY (2)   OFTEN (3) </b>	-16	0	0	0	0	0	0
6	2023-03-30	12:40:30	13:18:46	13:18:46:344	12	1	TNT_NoThink_CSp	fixation	0	5	500	0	0	1	495	1	+	-8	0	0	0	0	0	0
6	2023-03-30	12:40:30	13:18:47	13:18:47:358	12	2	TNT_NoThink_CSp	NoThink	0	5	0	0	0	0	1000	1	DON'T THINK	-16	0	0	0	0	0	0
6	2023-03-30	12:40:30	13:18:52	13:18:52:374	12	3	TNT_NoThink_CSp	TNT_NoThink_CSp	0	5	0	0	0	0	5000	2	Cue34.jpg	-16	0	0	0	0	0	0
6	2023-03-30	12:40:30	13:18:55	13:18:55:882	12	4	TNT_NoThink_CSp	Intrusion	0	500	3000	0	0	0	2500	1	How <b>often</b> did you <b>think</b> about the <b>scene</b>?   <center><br><b>NEVER (1)    BRIEFLY (2)   OFTEN (3) </b>	-16	0	0	0	0	0	0
6	2023-03-30	12:40:30	13:18:57	13:18:57:878	13	1	TNT_Object_CSp	fixation	0	5	1500	0	0	1	1495	1	+	-9	0	0	0	0	0	0
6	2023-03-30	12:40:30	13:18:58	13:18:58:891	13	2	TNT_Object_CSp	Passive	0	5	0	0	0	0	1000	1	VIEW	-16	0	0	0	0	0	0
6	2023-03-30	12:40:30	13:19:03	13:19:03:908	13	3	TNT_Object_CSp	TNT_Object_CSp	0	1500	0	0	0	0	5000	4	Object7.jpg	-16	0	0	0	0	0	0
6	2023-03-30	12:40:30	13:19:05	13:19:05:407	14	1	TNT_NoThink_CSp	fixation	0	5	1000	0	0	1	995	1	+	-9	0	0	0	0	0	0
6	2023-03-30	12:40:30	13:19:06	13:19:06:426	14	2	TNT_NoThink_CSp	NoThink	0	5	0	0	0	0	1000	1	DON'T THINK	-16	0	0	0	0	0	0
6	2023-03-30	12:40:30	13:19:11	13:19:11:442	14	3	TNT_NoThink_CSp	TNT_NoThink_CSp	0	5	0	0	0	0	5000	1	Cue8.jpg	-16	0	0	0	0	0	0
6	2023-03-30	12:40:30	13:19:12	13:19:12:146	14	4	TNT_NoThink_CSp	Intrusion	0	1000	3000	0	3	1	686	1	How <b>often</b> did you <b>think</b> about the <b>scene</b>?   <center><br><b>NEVER (1)    BRIEFLY (2)   OFTEN (3) </b>	-16	0	0	0	0	0	0
6	2023-03-30	12:40:30	13:19:15	13:19:15:946	15	1	TNT_NoThink_CSm	fixation	0	5	500	0	0	1	495	1	+	-8	0	0	0	0	0	0
6	2023-03-30	12:40:30	13:19:16	13:19:16:959	15	2	TNT_NoThink_CSm	NoThink	0	5	0	0	0	0	1000	1	DON'T THINK	-16	0	0	0	0	0	0
6	2023-03-30	12:40:30	13:19:21	13:19:21:976	15	3	TNT_NoThink_CSm	TNT_NoThink_CSm	0	5	0	0	0	0	5000	4	Cue32.jpg	-16	0	0	0	0	0	0
6	2023-03-30	12:40:30	13:19:22	13:19:22:626	15	4	TNT_NoThink_CSm	Intrusion	0	500	3000	0	2	1	1633	1	How <b>often</b> did you <b>think</b> about the <b>scene</b>?   <center><br><b>NEVER (1)    BRIEFLY (2)   OFTEN (3) </b>	-16	0	0	0	0	0	0
6	2023-03-30	12:40:30	13:19:25	13:19:25:480	16	1	TNT_Think_CSm	fixation	0	5	1500	0	0	1	1495	1	+	-3	0	0	0	0	0	0
6	2023-03-30	12:40:30	13:19:26	13:19:26:493	16	2	TNT_Think_CSm	Think	0	5	0	0	0	0	1000	1	THINK	-16	0	0	0	0	0	0
6	2023-03-30	12:40:30	13:19:31	13:19:31:510	16	3	TNT_Think_CSm	TNT_Think_CSm	0	5	0	0	0	0	5000	3	Cue30.jpg	-16	0	0	0	0	0	0
6	2023-03-30	12:40:30	13:19:33	13:19:33:017	16	4	TNT_Think_CSm	Intrusion	0	1500	3000	0	0	0	1500	1	How <b>often</b> did you <b>think</b> about the <b>scene</b>?   <center><br><b>NEVER (1)    BRIEFLY (2)   OFTEN (3) </b>	-16	0	0	0	0	0	0
6	2023-03-30	12:40:30	13:19:36	13:19:36:014	17	1	TNT_Object_CSm	fixation	0	5	1500	0	0	1	1495	1	+	-9	0	0	0	0	0	0
6	2023-03-30	12:40:30	13:19:37	13:19:37:027	17	2	TNT_Object_CSm	Passive	0	5	0	0	0	0	1000	1	VIEW	-16	0	0	0	0	0	0
6	2023-03-30	12:40:30	13:19:42	13:19:42:044	17	3	TNT_Object_CSm	TNT_Object_CSm	0	1000	0	0	0	0	5000	4	Object5.jpg	-16	0	0	0	0	0	0
6	2023-03-30	12:40:30	13:19:43	13:19:43:542	18	1	TNT_Object_CSm	fixation	0	5	500	0	0	1	495	1	+	-9	0	0	0	0	0	0
6	2023-03-30	12:40:30	13:19:44	13:19:44:561	18	2	TNT_Object_CSm	Passive	0	5	0	0	0	0	1000	1	VIEW	-16	0	0	0	0	0	0
6	2023-03-30	12:40:30	13:19:49	13:19:49:578	18	3	TNT_Object_CSm	TNT_Object_CSm	0	500	0	0	0	0	5000	1	Object4.jpg	-16	0	0	0	0	0	0
6	2023-03-30	12:40:30	13:19:51	13:19:51:077	19	1	TNT_NoThink_CSp	fixation	0	5	1000	0	0	1	995	1	+	-8	0	0	0	0	0	0
6	2023-03-30	12:40:30	13:19:52	13:19:52:095	19	2	TNT_NoThink_CSp	NoThink	0	5	0	0	0	0	1000	1	DON'T THINK	-16	0	0	0	0	0	0
6	2023-03-30	12:40:30	13:19:57	13:19:57:111	19	3	TNT_NoThink_CSp	TNT_NoThink_CSp	0	5	0	0	0	0	5000	3	Cue23.jpg	-16	0	0	0	0	0	0
6	2023-03-30	12:40:30	13:19:58	13:19:58:034	19	4	TNT_NoThink_CSp	Intrusion	0	1500	3000	0	3	1	905	1	How <b>often</b> did you <b>think</b> about the <b>scene</b>?   <center><br><b>NEVER (1)    BRIEFLY (2)   OFTEN (3) </b>	-16	0	0	0	0	0	0
6	2023-03-30	12:40:30	13:20:01	13:20:01:616	20	1	TNT_Object_CSm	fixation	0	5	1500	0	0	1	1495	1	+	-16	0	0	0	0	0	0
6	2023-03-30	12:40:30	13:20:02	13:20:02:628	20	2	TNT_Object_CSm	Passive	0	5	0	0	0	0	1000	1	VIEW	-16	0	0	0	0	0	0
6	2023-03-30	12:40:30	13:20:07	13:20:07:645	20	3	TNT_Object_CSm	TNT_Object_CSm	0	1500	0	0	0	0	5000	2	Object1.jpg	-16	0	0	0	0	0	0
6	2023-03-30	12:40:30	13:20:09	13:20:09:645	21	1	TNT_Think_CSm	fixation	0	5	500	0	0	1	495	1	+	-8	0	0	0	0	0	0
6	2023-03-30	12:40:30	13:20:10	13:20:10:662	21	2	TNT_Think_CSm	Think	0	5	0	0	0	0	1000	1	THINK	-16	0	0	0	0	0	0
6	2023-03-30	12:40:30	13:20:15	13:20:15:679	21	3	TNT_Think_CSm	TNT_Think_CSm	0	5	0	0	0	0	5000	5	Cue31.jpg	-16	0	0	0	0	0	0
6	2023-03-30	12:40:30	13:20:17	13:20:17:754	21	4	TNT_Think_CSm	Intrusion	0	1000	3000	0	4	1	1057	1	How <b>often</b> did you <b>think</b> about the <b>scene</b>?   <center><br><b>NEVER (1)    BRIEFLY (2)   OFTEN (3) </b>	-16	0	0	0	0	0	0
6	2023-03-30	12:40:30	13:20:19	13:20:19:683	22	1	TNT_NoThink_CSm	fixation	0	5	1000	0	0	1	995	1	+	-9	0	0	0	0	0	0
6	2023-03-30	12:40:30	13:20:21	13:20:21:696	22	2	TNT_NoThink_CSm	NoThink	0	5	0	0	0	0	1000	1	DON'T THINK	-16	0	0	0	0	0	0
6	2023-03-30	12:40:30	13:20:26	13:20:26:713	22	3	TNT_NoThink_CSm	TNT_NoThink_CSm	0	5	0	0	0	0	5000	6	Cue1.jpg	-16	0	0	0	0	0	0
6	2023-03-30	12:40:30	13:20:26	13:20:26:354	22	4	TNT_NoThink_CSm	Intrusion	0	500	3000	0	3	1	623	1	How <b>often</b> did you <b>think</b> about the <b>scene</b>?   <center><br><b>NEVER (1)    BRIEFLY (2)   OFTEN (3) </b>	-16	0	0	0	0	0	0
6	2023-03-30	12:40:30	13:20:29	13:20:29:217	23	1	TNT_Object_CSp	fixation	0	5	500	0	0	1	495	1	+	-8	0	0	0	0	0	0
6	2023-03-30	12:40:30	13:20:30	13:20:30:230	23	2	TNT_Object_CSp	Passive	0	5	0	0	0	0	1000	1	VIEW	-16	0	0	0	0	0	0
6	2023-03-30	12:40:30	13:20:35	13:20:35:247	23	3	TNT_Object_CSp	TNT_Object_CSp	0	500	0	0	0	0	5000	1	Object2.jpg	-16	0	0	0	0	0	0
6	2023-03-30	12:40:30	13:20:37	13:20:37:246	24	1	TNT_NoThink_CSp	fixation	0	5	1500	0	0	1	1495	1	+	-9	0	0	0	0	0	0
6	2023-03-30	12:40:30	13:20:38	13:20:38:264	24	2	TNT_NoThink_CSp	NoThink	0	5	0	0	0	0	1000	1	DON'T THINK	-16	0	0	0	0	0	0
6	2023-03-30	12:40:30	13:20:43	13:20:43:281	24	3	TNT_NoThink_CSp	TNT_NoThink_CSp	0	5	0	0	0	0	5000	4	Cue28.jpg	-16	0	0	0	0	0	0
6	2023-03-30	12:40:30	13:20:44	13:20:44:258	24	4	TNT_NoThink_CSp	Intrusion	0	1000	3000	0	3	1	960	1	How <b>often</b> did you <b>think</b> about the <b>scene</b>?   <center><br><b>NEVER (1)    BRIEFLY (2)   OFTEN (3) </b>	-16	0	0	0	0	0	0
6	2023-03-30	12:40:30	13:20:47	13:20:47:285	25	1	TNT_NoThink_CSm	fixation	0	5	1000	0	0	1	995	1	+	-16	0	0	0	0	0	0
6	2023-03-30	12:40:30	13:20:48	13:20:48:298	25	2	TNT_NoThink_CSm	NoThink	0	5	0	0	0	0	1000	1	DON'T THINK	-16	0	0	0	0	0	0
6	2023-03-30	12:40:30	13:20:53	13:20:53:315	25	3	TNT_NoThink_CSm	TNT_NoThink_CSm	0	5	0	0	0	0	5000	1	Cue13.jpg	-16	0	0	0	0	0	0
6	2023-03-30	12:40:30	13:20:53	13:20:53:682	25	4	TNT_NoThink_CSm	Intrusion	0	500	3000	0	3	1	350	1	How <b>often</b> did you <b>think</b> about the <b>scene</b>?   <center><br><b>NEVER (1)    BRIEFLY (2)   OFTEN (3) </b>	-16	0	0	0	0	0	0
6	2023-03-30	12:40:30	13:20:58	13:20:58:819	26	1	TNT_Object_CSp	fixation	0	5	1500	0	0	1	1495	1	+	-8	0	0	0	0	0	0
6	2023-03-30	12:40:30	13:20:59	13:20:59:832	26	2	TNT_Object_CSp	Passive	0	5	0	0	0	0	1000	1	VIEW	-16	0	0	0	0	0	0
6	2023-03-30	12:40:30	13:21:04	13:21:04:849	26	3	TNT_Object_CSp	TNT_Object_CSp	0	1500	0	0	0	0	5000	2	Object3.jpg	-16	0	0	0	0	0	0
6	2023-03-30	12:40:30	13:21:06	13:21:06:348	27	1	TNT_Think_CSm	fixation	0	5	1000	0	0	1	995	1	+	-8	0	0	0	0	0	0
6	2023-03-30	12:40:30	13:21:07	13:21:07:365	27	2	TNT_Think_CSm	Think	0	5	0	0	0	0	1000	1	THINK	-16	0	0	0	0	0	0
6	2023-03-30	12:40:30	13:21:12	13:21:12:382	27	3	TNT_Think_CSm	TNT_Think_CSm	0	5	0	0	0	0	5000	4	Cue20.jpg	-16	0	0	0	0	0	0
6	2023-03-30	12:40:30	13:21:14	13:21:14:890	27	4	TNT_Think_CSm	Intrusion	0	1500	3000	0	0	0	1500	1	How <b>often</b> did you <b>think</b> about the <b>scene</b>?   <center><br><b>NEVER (1)    BRIEFLY (2)   OFTEN (3) </b>	-16	0	0	0	0	0	0
6	2023-03-30	12:40:30	13:21:16	13:21:16:887	28	1	TNT_NoThink_CSm	fixation	0	5	500	0	0	1	495	1	+	-16	0	0	0	0	0	0
6	2023-03-30	12:40:30	13:21:17	13:21:17:900	28	2	TNT_NoThink_CSm	NoThink	0	5	0	0	0	0	1000	1	DON'T THINK	-16	0	0	0	0	0	0
6	2023-03-30	12:40:30	13:21:22	13:21:22:916	28	3	TNT_NoThink_CSm	TNT_NoThink_CSm	0	5	0	0	0	0	5000	3	Cue4.jpg	-16	0	0	0	0	0	0
6	2023-03-30	12:40:30	13:21:23	13:21:23:802	28	4	TNT_NoThink_CSm	Intrusion	0	1000	3000	0	3	1	868	1	How <b>often</b> did you <b>think</b> about the <b>scene</b>?   <center><br><b>NEVER (1)    BRIEFLY (2)   OFTEN (3) </b>	-16	0	0	0	0	0	0
6	2023-03-30	12:40:30	13:21:26	13:21:26:920	29	1	TNT_Think_CSp	fixation	0	5	1000	0	0	1	995	1	+	-8	0	0	0	0	0	0
6	2023-03-30	12:40:30	13:21:27	13:21:27:934	29	2	TNT_Think_CSp	Think	0	5	0	0	0	0	1000	1	THINK	-16	0	0	0	0	0	0
6	2023-03-30	12:40:30	13:21:32	13:21:32:951	29	3	TNT_Think_CSp	TNT_Think_CSp	0	5	0	0	0	0	5000	5	Cue27.jpg	-16	0	0	0	0	0	0
6	2023-03-30	12:40:30	13:21:33	13:21:33:850	29	4	TNT_Think_CSp	Intrusion	0	1500	3000	0	3	1	882	1	How <b>often</b> did you <b>think</b> about the <b>scene</b>?   <center><br><b>NEVER (1)    BRIEFLY (2)   OFTEN (3) </b>	-16	0	0	0	0	0	0
6	2023-03-30	12:40:30	13:21:35	13:21:35:455	30	1	TNT_Think_CSp	fixation	0	5	500	0	0	1	495	1	+	-16	0	0	0	0	0	0
6	2023-03-30	12:40:30	13:21:36	13:21:36:467	30	2	TNT_Think_CSp	Think	0	5	0	0	0	0	1000	1	THINK	-16	0	0	0	0	0	0
6	2023-03-30	12:40:30	13:21:41	13:21:41:484	30	3	TNT_Think_CSp	TNT_Think_CSp	0	5	0	0	0	0	5000	4	Cue33.jpg	-16	0	0	0	0	0	0
6	2023-03-30	12:40:30	13:21:43	13:21:43:394	30	4	TNT_Think_CSp	Intrusion	0	500	3000	0	4	1	1892	1	How <b>often</b> did you <b>think</b> about the <b>scene</b>?   <center><br><b>NEVER (1)    BRIEFLY (2)   OFTEN (3) </b>	-16	0	0	0	0	0	0
6	2023-03-30	12:40:30	13:21:46	13:21:46:988	31	1	TNT_NoThink_CSp	fixation	0	5	1500	0	0	1	1495	1	+	-9	0	0	0	0	0	0
6	2023-03-30	12:40:30	13:21:47	13:21:47:01	31	2	TNT_NoThink_CSp	NoThink	0	5	0	0	0	0	1000	1	DON'T THINK	-16	0	0	0	0	0	0
6	2023-03-30	12:40:30	13:21:52	13:21:52:018	31	3	TNT_NoThink_CSp	TNT_NoThink_CSp	0	5	0	0	0	0	5000	6	Cue12.jpg	-16	0	0	0	0	0	0
6	2023-03-30	12:40:30	13:21:52	13:21:52:610	31	4	TNT_NoThink_CSp	Intrusion	0	1500	3000	0	3	1	574	1	How <b>often</b> did you <b>think</b> about the <b>scene</b>?   <center><br><b>NEVER (1)    BRIEFLY (2)   OFTEN (3) </b>	-16	0	0	0	0	0	0
6	2023-03-30	12:40:30	13:21:56	13:21:56:522	32	1	TNT_Think_CSm	fixation	0	5	1500	0	0	1	1495	1	+	-9	0	0	0	0	0	0
6	2023-03-30	12:40:30	13:21:57	13:21:57:536	32	2	TNT_Think_CSm	Think	0	5	0	0	0	0	1000	1	THINK	-16	0	0	0	0	0	0
6	2023-03-30	12:40:30	13:22:02	13:22:02:552	32	3	TNT_Think_CSm	TNT_Think_CSm	0	5	0	0	0	0	5000	2	Cue22.jpg	-16	0	0	0	0	0	0
6	2023-03-30	12:40:30	13:22:04	13:22:04:560	32	4	TNT_Think_CSm	Intrusion	0	1000	3000	0	0	0	2000	1	How <b>often</b> did you <b>think</b> about the <b>scene</b>?   <center><br><b>NEVER (1)    BRIEFLY (2)   OFTEN (3) </b>	-16	0	0	0	0	0	0
6	2023-03-30	12:40:30	13:22:06	13:22:06:056	33	1	TNT_Think_CSm	fixation	0	5	500	0	0	1	495	1	+	-8	0	0	0	0	0	0
6	2023-03-30	12:40:30	13:22:07	13:22:07:069	33	2	TNT_Think_CSm	Think	0	5	0	0	0	0	1000	1	THINK	-16	0	0	0	0	0	0
6	2023-03-30	12:40:30	13:22:12	13:22:12:086	33	3	TNT_Think_CSm	TNT_Think_CSm	0	5	0	0	0	0	5000	6	Cue35.jpg	-16	0	0	0	0	0	0
6	2023-03-30	12:40:30	13:22:14	13:22:14:258	33	4	TNT_Think_CSm	Intrusion	0	500	3000	0	3	1	2155	1	How <b>often</b> did you <b>think</b> about the <b>scene</b>?   <center><br><b>NEVER (1)    BRIEFLY (2)   OFTEN (3) </b>	-16	0	0	0	0	0	0
6	2023-03-30	12:40:30	13:22:16	13:22:16:090	34	1	TNT_NoThink_CSm	fixation	0	5	1000	0	0	1	995	1	+	-9	0	0	0	0	0	0
6	2023-03-30	12:40:30	13:22:17	13:22:17:103	34	2	TNT_NoThink_CSm	NoThink	0	5	0	0	0	0	1000	1	DON'T THINK	-16	0	0	0	0	0	0
6	2023-03-30	12:40:30	13:22:22	13:22:22:120	34	3	TNT_NoThink_CSm	TNT_NoThink_CSm	0	5	0	0	0	0	5000	4	Cue32.jpg	-16	0	0	0	0	0	0
6	2023-03-30	12:40:30	13:22:23	13:22:23:666	34	4	TNT_NoThink_CSm	Intrusion	0	500	3000	0	3	1	1528	1	How <b>often</b> did you <b>think</b> about the <b>scene</b>?   <center><br><b>NEVER (1)    BRIEFLY (2)   OFTEN (3) </b>	-16	0	0	0	0	0	0
6	2023-03-30	12:40:30	13:22:25	13:22:25:623	35	1	TNT_Object_CSm	fixation	0	5	500	0	0	1	495	1	+	4	0	0	0	0	0	0
6	2023-03-30	12:40:30	13:22:26	13:22:26:637	35	2	TNT_Object_CSm	Passive	0	5	0	0	0	0	1000	1	VIEW	-16	0	0	0	0	0	0
6	2023-03-30	12:40:30	13:22:31	13:22:31:654	35	3	TNT_Object_CSm	TNT_Object_CSm	0	1000	0	0	0	0	5000	4	Object5.jpg	-16	0	0	0	0	0	0
6	2023-03-30	12:40:30	13:22:33	13:22:33:653	36	1	TNT_NoThink_CSm	fixation	0	5	1000	0	0	1	995	1	+	-4	0	0	0	0	0	0
6	2023-03-30	12:40:30	13:22:34	13:22:34:671	36	2	TNT_NoThink_CSm	NoThink	0	5	0	0	0	0	1000	1	DON'T THINK	-16	0	0	0	0	0	0
6	2023-03-30	12:40:30	13:22:39	13:22:39:688	36	3	TNT_NoThink_CSm	TNT_NoThink_CSm	0	5	0	0	0	0	5000	6	Cue1.jpg	-16	0	0	0	0	0	0
6	2023-03-30	12:40:30	13:22:40	13:22:40:674	36	4	TNT_NoThink_CSm	Intrusion	0	1500	3000	0	3	1	969	1	How <b>often</b> did you <b>think</b> about the <b>scene</b>?   <center><br><b>NEVER (1)    BRIEFLY (2)   OFTEN (3) </b>	-16	0	0	0	0	0	0
6	2023-03-30	12:40:30	13:22:44	13:22:44:192	37	1	TNT_Think_CSp	fixation	0	5	1500	0	0	1	1495	1	+	-8	0	0	0	0	0	0
6	2023-03-30	12:40:30	13:22:45	13:22:45:205	37	2	TNT_Think_CSp	Think	0	5	0	0	0	0	1000	1	THINK	-16	0	0	0	0	0	0
6	2023-03-30	12:40:30	13:22:50	13:22:50:222	37	3	TNT_Think_CSp	TNT_Think_CSp	0	5	0	0	0	0	5000	3	Cue25.jpg	-16	0	0	0	0	0	0
6	2023-03-30	12:40:30	13:22:52	13:22:52:228	37	4	TNT_Think_CSp	Intrusion	0	1000	3000	0	0	0	2000	1	How <b>often</b> did you <b>think</b> about the <b>scene</b>?   <center><br><b>NEVER (1)    BRIEFLY (2)   OFTEN (3) </b>	-16	0	0	0	0	0	0
6	2023-03-30	12:40:30	13:22:54	13:22:54:727	38	1	TNT_NoThink_CSm	fixation	0	5	500	0	0	1	495	1	+	-16	0	0	0	0	0	0
6	2023-03-30	12:40:30	13:22:55	13:22:55:739	38	2	TNT_NoThink_CSm	NoThink	0	5	0	0	0	0	1000	1	DON'T THINK	-16	0	0	0	0	0	0
6	2023-03-30	12:40:30	13:23:00	13:23:00:756	38	3	TNT_NoThink_CSm	TNT_NoThink_CSm	0	5	0	0	0	0	5000	1	Cue13.jpg	-16	0	0	0	0	0	0
6	2023-03-30	12:40:30	13:23:01	13:23:01:264	38	4	TNT_NoThink_CSm	Intrusion	0	1500	3000	0	0	0	1500	1	How <b>often</b> did you <b>think</b> about the <b>scene</b>?   <center><br><b>NEVER (1)    BRIEFLY (2)   OFTEN (3) </b>	-16	0	0	0	0	0	0
6	2023-03-30	12:40:30	13:23:04	13:23:04:760	39	1	TNT_Think_CSp	fixation	0	5	1000	0	0	1	995	1	+	-16	0	0	0	0	0	0
6	2023-03-30	12:40:30	13:23:05	13:23:05:772	39	2	TNT_Think_CSp	Think	0	5	0	0	0	0	1000	1	THINK	-16	0	0	0	0	0	0
6	2023-03-30	12:40:30	13:23:10	13:23:10:789	39	3	TNT_Think_CSp	TNT_Think_CSp	0	5	0	0	0	0	5000	6	Cue29.jpg	-16	0	0	0	0	0	0
6	2023-03-30	12:40:30	13:23:11	13:23:11:490	39	4	TNT_Think_CSp	Intrusion	0	500	3000	0	4	1	1683	1	How <b>often</b> did you <b>think</b> about the <b>scene</b>?   <center><br><b>NEVER (1)    BRIEFLY (2)   OFTEN (3) </b>	-16	0	0	0	0	0	0
6	2023-03-30	12:40:30	13:23:14	13:23:14:293	40	1	TNT_NoThink_CSm	fixation	0	5	1500	0	0	1	1495	1	+	-9	0	0	0	0	0	0
6	2023-03-30	12:40:30	13:23:15	13:23:15:307	40	2	TNT_NoThink_CSm	NoThink	0	5	0	0	0	0	1000	1	DON'T THINK	-16	0	0	0	0	0	0
6	2023-03-30	12:40:30	13:23:20	13:23:20:323	40	3	TNT_NoThink_CSm	TNT_NoThink_CSm	0	5	0	0	0	0	5000	5	Cue24.jpg	-16	0	0	0	0	0	0
6	2023-03-30	12:40:30	13:23:21	13:23:21:962	40	4	TNT_NoThink_CSm	Intrusion	0	1000	3000	0	3	1	621	1	How <b>often</b> did you <b>think</b> about the <b>scene</b>?   <center><br><b>NEVER (1)    BRIEFLY (2)   OFTEN (3) </b>	-16	0	0	0	0	0	0
6	2023-03-30	12:40:30	13:23:24	13:23:24:327	41	1	TNT_Think_CSm	fixation	0	5	1000	0	0	1	995	1	+	-8	0	0	0	0	0	0
6	2023-03-30	12:40:30	13:23:25	13:23:25:341	41	2	TNT_Think_CSm	Think	0	5	0	0	0	0	1000	1	THINK	-16	0	0	0	0	0	0
6	2023-03-30	12:40:30	13:23:30	13:23:30:357	41	3	TNT_Think_CSm	TNT_Think_CSm	0	5	0	0	0	0	5000	3	Cue30.jpg	-16	0	0	0	0	0	0
6	2023-03-30	12:40:30	13:23:31	13:23:31:994	41	4	TNT_Think_CSm	Intrusion	0	1000	3000	0	4	1	619	1	How <b>often</b> did you <b>think</b> about the <b>scene</b>?   <center><br><b>NEVER (1)    BRIEFLY (2)   OFTEN (3) </b>	-16	0	0	0	0	0	0
6	2023-03-30	12:40:30	13:23:35	13:23:35:861	42	1	TNT_Object_CSp	fixation	0	5	1500	0	0	1	1495	1	+	-8	0	0	0	0	0	0
6	2023-03-30	12:40:30	13:23:36	13:23:36:874	42	2	TNT_Object_CSp	Passive	0	5	0	0	0	0	1000	1	VIEW	-16	0	0	0	0	0	0
6	2023-03-30	12:40:30	13:23:41	13:23:41:891	42	3	TNT_Object_CSp	TNT_Object_CSp	0	500	0	0	0	0	5000	3	Object6.jpg	-16	0	0	0	0	0	0
6	2023-03-30	12:40:30	13:23:42	13:23:42:890	43	1	TNT_Object_CSm	fixation	0	5	500	0	0	1	495	1	+	-8	0	0	0	0	0	0
6	2023-03-30	12:40:30	13:23:43	13:23:43:908	43	2	TNT_Object_CSm	Passive	0	5	0	0	0	0	1000	1	VIEW	-16	0	0	0	0	0	0
6	2023-03-30	12:40:30	13:23:48	13:23:48:925	43	3	TNT_Object_CSm	TNT_Object_CSm	0	500	0	0	0	0	5000	1	Object4.jpg	-16	0	0	0	0	0	0
6	2023-03-30	12:40:30	13:23:50	13:23:50:925	44	1	TNT_NoThink_CSp	fixation	0	5	1500	0	0	1	1495	1	+	-8	0	0	0	0	0	0
6	2023-03-30	12:40:30	13:23:51	13:23:51:942	44	2	TNT_NoThink_CSp	NoThink	0	5	0	0	0	0	1000	1	DON'T THINK	-16	0	0	0	0	0	0
6	2023-03-30	12:40:30	13:23:56	13:23:56:959	44	3	TNT_NoThink_CSp	TNT_NoThink_CSp	0	5	0	0	0	0	5000	2	Cue34.jpg	-16	0	0	0	0	0	0
6	2023-03-30	12:40:30	13:23:56	13:23:56:338	44	4	TNT_NoThink_CSp	Intrusion	0	1500	3000	0	2	1	362	1	How <b>often</b> did you <b>think</b> about the <b>scene</b>?   <center><br><b>NEVER (1)    BRIEFLY (2)   OFTEN (3) </b>	-16	0	0	0	0	0	0
6	2023-03-30	12:40:30	13:24:00	13:24:00:963	45	1	TNT_NoThink_CSp	fixation	0	5	1000	0	0	1	995	1	+	-9	0	0	0	0	0	0
6	2023-03-30	12:40:30	13:24:01	13:24:01:976	45	2	TNT_NoThink_CSp	NoThink	0	5	0	0	0	0	1000	1	DON'T THINK	-16	0	0	0	0	0	0
6	2023-03-30	12:40:30	13:24:06	13:24:06:993	45	3	TNT_NoThink_CSp	TNT_NoThink_CSp	0	5	0	0	0	0	5000	1	Cue8.jpg	-16	0	0	0	0	0	0
6	2023-03-30	12:40:30	13:24:08	13:24:08:922	45	4	TNT_NoThink_CSp	Intrusion	0	500	3000	0	2	1	1911	1	How <b>often</b> did you <b>think</b> about the <b>scene</b>?   <center><br><b>NEVER (1)    BRIEFLY (2)   OFTEN (3) </b>	-16	0	0	0	0	0	0
6	2023-03-30	12:40:30	13:24:09	13:24:09:496	46	1	TNT_Object_CSp	fixation	0	5	500	0	0	1	495	1	+	-8	0	0	0	0	0	0
6	2023-03-30	12:40:30	13:24:10	13:24:10:510	46	2	TNT_Object_CSp	Passive	0	5	0	0	0	0	1000	1	VIEW	-16	0	0	0	0	0	0
6	2023-03-30	12:40:30	13:24:15	13:24:15:527	46	3	TNT_Object_CSp	TNT_Object_CSp	0	1000	0	0	0	0	5000	4	Object7.jpg	-16	0	0	0	0	0	0
6	2023-03-30	12:40:30	13:24:17	13:24:17:526	47	1	TNT_NoThink_CSp	fixation	0	5	1000	0	0	1	995	1	+	-8	0	0	0	0	0	0
6	2023-03-30	12:40:30	13:24:18	13:24:18:544	47	2	TNT_NoThink_CSp	NoThink	0	5	0	0	0	0	1000	1	DON'T THINK	-16	0	0	0	0	0	0
6	2023-03-30	12:40:30	13:24:23	13:24:23:561	47	3	TNT_NoThink_CSp	TNT_NoThink_CSp	0	5	0	0	0	0	5000	5	Cue11.jpg	-16	0	0	0	0	0	0
6	2023-03-30	12:40:30	13:24:25	13:24:25:722	47	4	TNT_NoThink_CSp	Intrusion	0	500	3000	0	2	1	1144	1	How <b>often</b> did you <b>think</b> about the <b>scene</b>?   <center><br><b>NEVER (1)    BRIEFLY (2)   OFTEN (3) </b>	-16	0	0	0	0	0	0
6	2023-03-30	12:40:30	13:24:28	13:24:28:065	48	1	TNT_Think_CSm	fixation	0	5	1500	0	0	1	1495	1	+	-16	0	0	0	0	0	0
6	2023-03-30	12:40:30	13:24:29	13:24:29:088	48	2	TNT_Think_CSm	Think	0	5	0	0	0	0	1000	1	THINK	-16	0	0	0	0	0	0
6	2023-03-30	12:40:30	13:24:34	13:24:34:094	48	3	TNT_Think_CSm	TNT_Think_CSm	0	5	0	0	0	0	5000	5	Cue31.jpg	-16	0	0	0	0	0	0
6	2023-03-30	12:40:30	13:24:35	13:24:35:186	48	4	TNT_Think_CSm	Intrusion	0	1500	3000	0	4	1	1073	1	How <b>often</b> did you <b>think</b> about the <b>scene</b>?   <center><br><b>NEVER (1)    BRIEFLY (2)   OFTEN (3) </b>	-16	0	0	0	0	0	0
6	2023-03-30	12:40:30	13:24:37	13:24:37:598	49	1	TNT_Think_CSp	fixation	0	5	500	0	0	1	495	1	+	-8	0	0	0	0	0	0
6	2023-03-30	12:40:30	13:24:38	13:24:38:612	49	2	TNT_Think_CSp	Think	0	5	0	0	0	0	1000	1	THINK	-16	0	0	0	0	0	0
6	2023-03-30	12:40:30	13:24:43	13:24:43:628	49	3	TNT_Think_CSp	TNT_Think_CSp	0	5	0	0	0	0	5000	1	Cue15.jpg	-16	0	0	0	0	0	0
6	2023-03-30	12:40:30	13:24:45	13:24:45:636	49	4	TNT_Think_CSp	Intrusion	0	1000	3000	0	0	0	2000	1	How <b>often</b> did you <b>think</b> about the <b>scene</b>?   <center><br><b>NEVER (1)    BRIEFLY (2)   OFTEN (3) </b>	-16	0	0	0	0	0	0
6	2023-03-30	12:40:30	13:24:48	13:24:48:132	50	1	TNT_NoThink_CSp	fixation	0	5	1500	0	0	1	1495	1	+	-7	0	0	0	0	0	0
6	2023-03-30	12:40:30	13:24:49	13:24:49:146	50	2	TNT_NoThink_CSp	NoThink	0	5	0	0	0	0	1000	1	DON'T THINK	-16	0	0	0	0	0	0
6	2023-03-30	12:40:30	13:24:54	13:24:54:162	50	3	TNT_NoThink_CSp	TNT_NoThink_CSp	0	5	0	0	0	0	5000	3	Cue23.jpg	-16	0	0	0	0	0	0
6	2023-03-30	12:40:30	13:24:54	13:24:54:578	50	4	TNT_NoThink_CSp	Intrusion	0	1000	3000	0	3	1	399	1	How <b>often</b> did you <b>think</b> about the <b>scene</b>?   <center><br><b>NEVER (1)    BRIEFLY (2)   OFTEN (3) </b>	-16	0	0	0	0	0	0
6	2023-03-30	12:40:30	13:24:58	13:24:58:165	51	1	TNT_Think_CSm	fixation	0	5	1000	0	0	1	995	1	+	-9	0	0	0	0	0	0
6	2023-03-30	12:40:30	13:24:59	13:24:59:179	51	2	TNT_Think_CSm	Think	0	5	0	0	0	0	1000	1	THINK	-16	0	0	0	0	0	0
6	2023-03-30	12:40:30	13:25:04	13:25:04:196	51	3	TNT_Think_CSm	TNT_Think_CSm	0	5	0	0	0	0	5000	6	Cue35.jpg	-16	0	0	0	0	0	0
6	2023-03-30	12:40:30	13:25:06	13:25:06:704	51	4	TNT_Think_CSm	Intrusion	0	1500	3000	0	0	0	1500	1	How <b>often</b> did you <b>think</b> about the <b>scene</b>?   <center><br><b>NEVER (1)    BRIEFLY (2)   OFTEN (3) </b>	-16	0	0	0	0	0	0
6	2023-03-30	12:40:30	13:25:08	13:25:08:700	52	1	TNT_Object_CSm	fixation	0	5	500	0	0	1	495	1	+	-8	0	0	0	0	0	0
6	2023-03-30	12:40:30	13:25:09	13:25:09:713	52	2	TNT_Object_CSm	Passive	0	5	0	0	0	0	1000	1	VIEW	-16	0	0	0	0	0	0
6	2023-03-30	12:40:30	13:25:14	13:25:14:730	52	3	TNT_Object_CSm	TNT_Object_CSm	0	1500	0	0	0	0	5000	3	Object8.jpg	-16	0	0	0	0	0	0
6	2023-03-30	12:40:30	13:25:16	13:25:16:230	53	1	TNT_Think_CSm	fixation	0	5	1000	0	0	1	995	1	+	-9	0	0	0	0	0	0
6	2023-03-30	12:40:30	13:25:17	13:25:17:247	53	2	TNT_Think_CSm	Think	0	5	0	0	0	0	1000	1	THINK	-16	0	0	0	0	0	0
6	2023-03-30	12:40:30	13:25:22	13:25:22:264	53	3	TNT_Think_CSm	TNT_Think_CSm	0	5	0	0	0	0	5000	1	Cue14.jpg	-16	0	0	0	0	0	0
6	2023-03-30	12:40:30	13:25:23	13:25:23:425	53	4	TNT_Think_CSm	Intrusion	0	500	3000	0	4	1	1144	1	How <b>often</b> did you <b>think</b> about the <b>scene</b>?   <center><br><b>NEVER (1)    BRIEFLY (2)   OFTEN (3) </b>	-16	0	0	0	0	0	0
6	2023-03-30	12:40:30	13:25:27	13:25:27:768	54	1	TNT_NoThink_CSm	fixation	0	5	1500	0	0	1	1495	1	+	-8	0	0	0	0	0	0
6	2023-03-30	12:40:30	13:25:28	13:25:28:781	54	2	TNT_NoThink_CSm	NoThink	0	5	0	0	0	0	1000	1	DON'T THINK	-16	0	0	0	0	0	0
6	2023-03-30	12:40:30	13:25:33	13:25:33:798	54	3	TNT_NoThink_CSm	TNT_NoThink_CSm	0	5	0	0	0	0	5000	3	Cue4.jpg	-16	0	0	0	0	0	0
6	2023-03-30	12:40:30	13:25:34	13:25:34:745	54	4	TNT_NoThink_CSm	Intrusion	0	1000	3000	0	3	1	930	1	How <b>often</b> did you <b>think</b> about the <b>scene</b>?   <center><br><b>NEVER (1)    BRIEFLY (2)   OFTEN (3) </b>	-16	0	0	0	0	0	0
6	2023-03-30	12:40:30	13:25:36	13:25:36:302	55	1	TNT_NoThink_CSp	fixation	0	5	500	0	0	1	495	1	+	0	0	0	0	0	0	0
6	2023-03-30	12:40:30	13:25:37	13:25:37:315	55	2	TNT_NoThink_CSp	NoThink	0	5	0	0	0	0	1000	1	DON'T THINK	-16	0	0	0	0	0	0
6	2023-03-30	12:40:30	13:25:42	13:25:42:332	55	3	TNT_NoThink_CSp	TNT_NoThink_CSp	0	5	0	0	0	0	5000	4	Cue28.jpg	-16	0	0	0	0	0	0
6	2023-03-30	12:40:30	13:25:43	13:25:43:898	55	4	TNT_NoThink_CSp	Intrusion	0	1500	3000	0	2	1	548	1	How <b>often</b> did you <b>think</b> about the <b>scene</b>?   <center><br><b>NEVER (1)    BRIEFLY (2)   OFTEN (3) </b>	-16	0	0	0	0	0	0
6	2023-03-30	12:40:30	13:25:47	13:25:47:836	56	1	TNT_Think_CSp	fixation	0	5	1500	0	0	1	1495	1	+	-7	0	0	0	0	0	0
6	2023-03-30	12:40:30	13:25:48	13:25:48:849	56	2	TNT_Think_CSp	Think	0	5	0	0	0	0	1000	1	THINK	-16	0	0	0	0	0	0
6	2023-03-30	12:40:30	13:25:53	13:25:53:866	56	3	TNT_Think_CSp	TNT_Think_CSp	0	5	0	0	0	0	5000	2	Cue10.jpg	-16	0	0	0	0	0	0
6	2023-03-30	12:40:30	13:25:54	13:25:54:690	56	4	TNT_Think_CSp	Intrusion	0	500	3000	0	4	1	1807	1	How <b>often</b> did you <b>think</b> about the <b>scene</b>?   <center><br><b>NEVER (1)    BRIEFLY (2)   OFTEN (3) </b>	-16	0	0	0	0	0	0
6	2023-03-30	12:40:30	13:25:57	13:25:57:870	57	1	TNT_Object_CSp	fixation	0	5	1000	0	0	1	995	1	+	-8	0	0	0	0	0	0
6	2023-03-30	12:40:30	13:25:58	13:25:58:883	57	2	TNT_Object_CSp	Passive	0	5	0	0	0	0	1000	1	VIEW	-16	0	0	0	0	0	0
6	2023-03-30	12:40:30	13:26:03	13:26:03:899	57	3	TNT_Object_CSp	TNT_Object_CSp	0	500	0	0	0	0	5000	1	Object2.jpg	-16	0	0	0	0	0	0
6	2023-03-30	12:40:30	13:26:04	13:26:04:899	58	1	TNT_Think_CSm	fixation	0	5	500	0	0	1	495	1	+	-9	0	0	0	0	0	0
6	2023-03-30	12:40:30	13:26:05	13:26:05:917	58	2	TNT_Think_CSm	Think	0	5	0	0	0	0	1000	1	THINK	-16	0	0	0	0	0	0
6	2023-03-30	12:40:30	13:26:10	13:26:10:933	58	3	TNT_Think_CSm	TNT_Think_CSm	0	5	0	0	0	0	5000	2	Cue22.jpg	-16	0	0	0	0	0	0
6	2023-03-30	12:40:30	13:26:11	13:26:11:073	58	4	TNT_Think_CSm	Intrusion	0	500	3000	0	4	1	1122	1	How <b>often</b> did you <b>think</b> about the <b>scene</b>?   <center><br><b>NEVER (1)    BRIEFLY (2)   OFTEN (3) </b>	-16	0	0	0	0	0	0
6	2023-03-30	12:40:30	13:26:14	13:26:14:937	59	1	TNT_Think_CSp	fixation	0	5	1000	0	0	1	995	1	+	-9	0	0	0	0	0	0
6	2023-03-30	12:40:30	13:26:15	13:26:15:951	59	2	TNT_Think_CSp	Think	0	5	0	0	0	0	1000	1	THINK	-16	0	0	0	0	0	0
6	2023-03-30	12:40:30	13:26:20	13:26:20:967	59	3	TNT_Think_CSp	TNT_Think_CSp	0	5	0	0	0	0	5000	4	Cue33.jpg	-16	0	0	0	0	0	0
6	2023-03-30	12:40:30	13:26:20	13:26:20:657	59	4	TNT_Think_CSp	Intrusion	0	1500	3000	0	4	1	672	1	How <b>often</b> did you <b>think</b> about the <b>scene</b>?   <center><br><b>NEVER (1)    BRIEFLY (2)   OFTEN (3) </b>	-16	0	0	0	0	0	0
6	2023-03-30	12:40:30	13:26:23	13:26:23:471	60	1	TNT_Object_CSp	fixation	0	5	500	0	0	1	495	1	+	-9	0	0	0	0	0	0
6	2023-03-30	12:40:30	13:26:24	13:26:24:484	60	2	TNT_Object_CSp	Passive	0	5	0	0	0	0	1000	1	VIEW	-16	0	0	0	0	0	0
6	2023-03-30	12:40:30	13:26:29	13:26:29:501	60	3	TNT_Object_CSp	TNT_Object_CSp	0	1500	0	0	0	0	5000	2	Object3.jpg	-16	0	0	0	0	0	0
6	2023-03-30	12:40:30	13:26:32	13:26:32:501	61	1	TNT_Think_CSp	fixation	0	5	1500	0	0	1	1495	1	+	-9	0	0	0	0	0	0
6	2023-03-30	12:40:30	13:26:33	13:26:33:518	61	2	TNT_Think_CSp	Think	0	5	0	0	0	0	1000	1	THINK	-16	0	0	0	0	0	0
6	2023-03-30	12:40:30	13:26:38	13:26:38:535	61	3	TNT_Think_CSp	TNT_Think_CSp	0	5	0	0	0	0	5000	5	Cue27.jpg	-16	0	0	0	0	0	0
6	2023-03-30	12:40:30	13:26:39	13:26:39:457	61	4	TNT_Think_CSp	Intrusion	0	1000	3000	0	4	1	904	1	How <b>often</b> did you <b>think</b> about the <b>scene</b>?   <center><br><b>NEVER (1)    BRIEFLY (2)   OFTEN (3) </b>	-16	0	0	0	0	0	0
6	2023-03-30	12:40:30	13:26:42	13:26:42:038	62	1	TNT_Think_CSm	fixation	0	5	500	0	0	1	495	1	+	-8	0	0	0	0	0	0
6	2023-03-30	12:40:30	13:26:43	13:26:43:052	62	2	TNT_Think_CSm	Think	0	5	0	0	0	0	1000	1	THINK	-16	0	0	0	0	0	0
6	2023-03-30	12:40:30	13:26:48	13:26:48:069	62	3	TNT_Think_CSm	TNT_Think_CSm	0	5	0	0	0	0	5000	4	Cue20.jpg	-16	0	0	0	0	0	0
6	2023-03-30	12:40:30	13:26:50	13:26:50:793	62	4	TNT_Think_CSm	Intrusion	0	1000	3000	0	4	1	1707	1	How <b>often</b> did you <b>think</b> about the <b>scene</b>?   <center><br><b>NEVER (1)    BRIEFLY (2)   OFTEN (3) </b>	-16	0	0	0	0	0	0
6	2023-03-30	12:40:30	13:26:52	13:26:52:073	63	1	TNT_NoThink_CSp	fixation	0	5	1000	0	0	1	995	1	+	-8	0	0	0	0	0	0
6	2023-03-30	12:40:30	13:26:53	13:26:53:086	63	2	TNT_NoThink_CSp	NoThink	0	5	0	0	0	0	1000	1	DON'T THINK	-16	0	0	0	0	0	0
6	2023-03-30	12:40:30	13:26:58	13:26:58:103	63	3	TNT_NoThink_CSp	TNT_NoThink_CSp	0	5	0	0	0	0	5000	6	Cue12.jpg	-16	0	0	0	0	0	0
6	2023-03-30	12:40:30	13:26:58	13:26:58:673	63	4	TNT_NoThink_CSp	Intrusion	0	500	3000	0	3	1	553	1	How <b>often</b> did you <b>think</b> about the <b>scene</b>?   <center><br><b>NEVER (1)    BRIEFLY (2)   OFTEN (3) </b>	-16	0	0	0	0	0	0
6	2023-03-30	12:40:30	13:27:02	13:27:02:607	64	1	TNT_Object_CSm	fixation	0	5	1500	0	0	1	1495	1	+	-9	0	0	0	0	0	0
6	2023-03-30	12:40:30	13:27:03	13:27:03:620	64	2	TNT_Object_CSm	Passive	0	5	0	0	0	0	1000	1	VIEW	-16	0	0	0	0	0	0
6	2023-03-30	12:40:30	13:27:08	13:27:08:637	64	3	TNT_Object_CSm	TNT_Object_CSm	0	500	0	0	0	0	5000	2	Object1.jpg	-16	0	0	0	0	0	0
6	2023-03-30	12:40:30	13:27:10	13:27:10:135	65	1	TNT_NoThink_CSm	fixation	0	5	1000	0	0	1	995	1	+	-9	0	0	0	0	0	0
6	2023-03-30	12:40:30	13:27:11	13:27:11:154	65	2	TNT_NoThink_CSm	NoThink	0	5	0	0	0	0	1000	1	DON'T THINK	-16	0	0	0	0	0	0
6	2023-03-30	12:40:30	13:27:16	13:27:16:171	65	3	TNT_NoThink_CSm	TNT_NoThink_CSm	0	5	0	0	0	0	5000	2	Cue7.jpg	-16	0	0	0	0	0	0
6	2023-03-30	12:40:30	13:27:17	13:27:17:881	65	4	TNT_NoThink_CSm	Intrusion	0	1500	3000	0	2	1	693	1	How <b>often</b> did you <b>think</b> about the <b>scene</b>?   <center><br><b>NEVER (1)    BRIEFLY (2)   OFTEN (3) </b>	-16	0	0	0	0	0	0
6	2023-03-30	12:40:30	13:27:19	13:27:19:675	66	1	Expectancy_rating	fixation	0	5	500	0	0	1	495	1	+	-8	0	0	0	0	0	0
6	2023-03-30	12:40:30	13:27:28	13:27:28:386	66	2	Expectancy_rating	expectancy_rating	0	500	0	0	80	0	8690	1	When you saw the <b>object</b>,   to what <b>degree (0-100%)</b> did you expect the <b>unpleasant sound to occur</b>?	-16	34	Cue34.jpg	-16	0	0	0
6	2023-03-30	12:40:30	13:27:30	13:27:30:387	67	1	Expectancy_rating	fixation	0	5	1500	0	0	1	1495	1	+	-8	0	0	0	0	0	0
6	2023-03-30	12:40:30	13:27:35	13:27:35:303	67	2	Expectancy_rating	expectancy_rating	0	1000	0	0	80	0	4860	1	When you saw the <b>object</b>,   to what <b>degree (0-100%)</b> did you expect the <b>unpleasant sound to occur</b>?	-16	40	Cue40.jpg	-16	0	0	0
6	2023-03-30	12:40:30	13:27:37	13:27:37:789	68	1	Expectancy_rating	fixation	0	5	500	0	0	1	495	1	+	-8	0	0	0	0	0	0
6	2023-03-30	12:40:30	13:27:41	13:27:41:671	68	2	Expectancy_rating	expectancy_rating	0	1500	0	0	55	0	4852	1	When you saw the <b>object</b>,   to what <b>degree (0-100%)</b> did you expect the <b>unpleasant sound to occur</b>?	-16	3	Cue3.jpg	-16	0	0	0
6	2023-03-30	12:40:30	13:27:44	13:27:44:173	69	1	Expectancy_rating	fixation	0	5	1000	0	0	1	995	1	+	-8	0	0	0	0	0	0
6	2023-03-30	12:40:30	13:27:51	13:27:51:554	69	2	Expectancy_rating	expectancy_rating	0	1000	0	0	50	0	7332	1	When you saw the <b>object</b>,   to what <b>degree (0-100%)</b> did you expect the <b>unpleasant sound to occur</b>?	-16	16	Cue16.jpg	-16	0	0	0
6	2023-03-30	12:40:30	13:27:54	13:27:54:040	70	1	Expectancy_rating	fixation	0	5	1500	0	0	1	1495	1	+	-9	0	0	0	0	0	0
6	2023-03-30	12:40:30	13:27:57	13:27:57:254	70	2	Expectancy_rating	expectancy_rating	0	1500	0	0	31	0	3161	1	When you saw the <b>object</b>,   to what <b>degree (0-100%)</b> did you expect the <b>unpleasant sound to occur</b>?	-16	1	Cue1.jpg	-16	0	0	0
6	2023-03-30	12:40:30	13:28:00	13:28:00:741	71	1	Expectancy_rating	fixation	0	5	1000	0	0	1	995	1	+	-9	0	0	0	0	0	0
6	2023-03-30	12:40:30	13:28:06	13:28:06:339	71	2	Expectancy_rating	expectancy_rating	0	500	0	0	50	0	6572	1	When you saw the <b>object</b>,   to what <b>degree (0-100%)</b> did you expect the <b>unpleasant sound to occur</b>?	-16	47	Object7.jpg	-16	0	0	0
6	2023-03-30	12:40:30	13:28:07	13:28:07:341	72	1	Expectancy_rating	fixation	0	5	500	0	0	1	495	1	+	-9	0	0	0	0	0	0
6	2023-03-30	12:40:30	13:28:11	13:28:11:855	72	2	Expectancy_rating	expectancy_rating	0	1500	0	0	80	0	3460	1	When you saw the <b>object</b>,   to what <b>degree (0-100%)</b> did you expect the <b>unpleasant sound to occur</b>?	-16	33	Cue33.jpg	-16	0	0	0
6	2023-03-30	12:40:30	13:28:14	13:28:14:842	73	1	Expectancy_rating	fixation	0	5	1500	0	0	1	1495	1	+	-8	0	0	0	0	0	0
6	2023-03-30	12:40:30	13:28:19	13:28:19:589	73	2	Expectancy_rating	expectancy_rating	0	1000	0	0	30	0	5696	1	When you saw the <b>object</b>,   to what <b>degree (0-100%)</b> did you expect the <b>unpleasant sound to occur</b>?	-16	18	Cue18.jpg	-16	0	0	0
6	2023-03-30	12:40:30	13:28:21	13:28:21:576	74	1	Expectancy_rating	fixation	0	5	1000	0	0	1	995	1	+	-8	0	0	0	0	0	0
6	2023-03-30	12:40:30	13:28:26	13:28:26:973	74	2	Expectancy_rating	expectancy_rating	0	500	0	0	90	0	4346	1	When you saw the <b>object</b>,   to what <b>degree (0-100%)</b> did you expect the <b>unpleasant sound to occur</b>?	-16	39	Cue39.jpg	-16	0	0	0
6	2023-03-30	12:40:30	13:28:28	13:28:28:958	75	1	Expectancy_rating	fixation	0	5	1500	0	0	1	1495	1	+	-8	0	0	0	0	0	0
6	2023-03-30	12:40:30	13:28:30	13:28:30:373	75	2	Expectancy_rating	expectancy_rating	0	1500	0	0	50	0	2362	1	When you saw the <b>object</b>,   to what <b>degree (0-100%)</b> did you expect the <b>unpleasant sound to occur</b>?	-16	41	Object1.jpg	-16	0	0	0
6	2023-03-30	12:40:30	13:28:32	13:28:32:359	76	1	Expectancy_rating	fixation	0	5	500	0	0	1	495	1	+	-8	0	0	0	0	0	0
6	2023-03-30	12:40:30	13:28:35	13:28:35:423	76	2	Expectancy_rating	expectancy_rating	0	500	0	0	100	0	3010	1	When you saw the <b>object</b>,   to what <b>degree (0-100%)</b> did you expect the <b>unpleasant sound to occur</b>?	-16	46	Object6.jpg	-16	0	0	0
6	2023-03-30	12:40:30	13:28:36	13:28:36:410	77	1	Expectancy_rating	fixation	0	5	500	0	0	1	495	1	+	-9	0	0	0	0	0	0
6	2023-03-30	12:40:30	13:28:45	13:28:45:407	77	2	Expectancy_rating	expectancy_rating	0	1000	0	0	60	0	8944	1	When you saw the <b>object</b>,   to what <b>degree (0-100%)</b> did you expect the <b>unpleasant sound to occur</b>?	-16	36	Cue36.jpg	-16	0	0	0
6	2023-03-30	12:40:30	13:28:47	13:28:47:393	78	1	Expectancy_rating	fixation	0	5	1000	0	0	1	995	1	+	-7	0	0	0	0	0	0
6	2023-03-30	12:40:30	13:29:01	13:29:01:891	78	2	Expectancy_rating	expectancy_rating	0	1500	0	0	50	0	13448	1	When you saw the <b>object</b>,   to what <b>degree (0-100%)</b> did you expect the <b>unpleasant sound to occur</b>?	-16	14	Cue14.jpg	-16	0	0	0
6	2023-03-30	12:40:30	13:29:04	13:29:04:877	79	1	Expectancy_rating	fixation	0	5	1500	0	0	1	1495	1	+	-8	0	0	0	0	0	0
6	2023-03-30	12:40:30	13:29:10	13:29:10:759	79	2	Expectancy_rating	expectancy_rating	0	500	0	0	30	0	5828	1	When you saw the <b>object</b>,   to what <b>degree (0-100%)</b> did you expect the <b>unpleasant sound to occur</b>?	-16	43	Object3.jpg	-16	0	0	0
6	2023-03-30	12:40:30	13:29:11	13:29:11:744	80	1	Expectancy_rating	fixation	0	5	500	0	0	1	495	1	+	-9	0	0	0	0	0	0
6	2023-03-30	12:40:30	13:29:17	13:29:17:010	80	2	Expectancy_rating	expectancy_rating	0	1000	0	0	20	0	6241	1	When you saw the <b>object</b>,   to what <b>degree (0-100%)</b> did you expect the <b>unpleasant sound to occur</b>?	-16	24	Cue24.jpg	-16	0	0	0
6	2023-03-30	12:40:30	13:29:19	13:29:19:012	81	1	Expectancy_rating	fixation	0	5	1000	0	0	1	995	1	+	-8	0	0	0	0	0	0
6	2023-03-30	12:40:30	13:29:26	13:29:26:343	81	2	Expectancy_rating	expectancy_rating	0	500	0	0	70	0	7308	1	When you saw the <b>object</b>,   to what <b>degree (0-100%)</b> did you expect the <b>unpleasant sound to occur</b>?	-16	12	Cue12.jpg	-16	0	0	0
6	2023-03-30	12:40:30	13:29:28	13:29:28:346	82	1	Expectancy_rating	fixation	0	5	1500	0	0	1	1495	1	+	-8	0	0	0	0	0	0
6	2023-03-30	12:40:30	13:29:33	13:29:33:589	82	2	Expectancy_rating	expectancy_rating	0	1500	0	0	40	0	5190	1	When you saw the <b>object</b>,   to what <b>degree (0-100%)</b> did you expect the <b>unpleasant sound to occur</b>?	-16	17	Cue17.jpg	-16	0	0	0
6	2023-03-30	12:40:30	13:29:35	13:29:35:579	83	1	Expectancy_rating	fixation	0	5	500	0	0	1	495	1	+	-8	0	0	0	0	0	0
6	2023-03-30	12:40:30	13:29:40	13:29:40:694	83	2	Expectancy_rating	expectancy_rating	0	1000	0	0	30	0	5062	1	When you saw the <b>object</b>,   to what <b>degree (0-100%)</b> did you expect the <b>unpleasant sound to occur</b>?	-16	30	Cue30.jpg	-16	0	0	0
6	2023-03-30	12:40:30	13:29:42	13:29:42:680	84	1	Expectancy_rating	fixation	0	5	1000	0	0	1	995	1	+	-9	0	0	0	0	0	0
6	2023-03-30	12:40:30	13:29:45	13:29:45:594	84	2	Expectancy_rating	expectancy_rating	0	1500	0	0	79	0	2865	1	When you saw the <b>object</b>,   to what <b>degree (0-100%)</b> did you expect the <b>unpleasant sound to occur</b>?	-16	23	Cue23.jpg	-16	0	0	0
6	2023-03-30	12:40:30	13:29:48	13:29:48:581	85	1	Expectancy_rating	fixation	0	5	1500	0	0	1	1495	1	+	-7	0	0	0	0	0	0
6	2023-03-30	12:40:30	13:29:57	13:29:57:259	85	2	Expectancy_rating	expectancy_rating	0	1000	0	0	30	0	8628	1	When you saw the <b>object</b>,   to what <b>degree (0-100%)</b> did you expect the <b>unpleasant sound to occur</b>?	-16	7	Cue7.jpg	-16	0	0	0
6	2023-03-30	12:40:30	13:29:59	13:29:59:248	86	1	Expectancy_rating	fixation	0	5	1000	0	0	1	995	1	+	-9	0	0	0	0	0	0
6	2023-03-30	12:40:30	13:30:02	13:30:02:212	86	2	Expectancy_rating	expectancy_rating	0	500	0	0	20	0	2937	1	When you saw the <b>object</b>,   to what <b>degree (0-100%)</b> did you expect the <b>unpleasant sound to occur</b>?	-16	31	Cue31.jpg	-16	0	0	0
6	2023-03-30	12:40:30	13:30:04	13:30:04:214	87	1	Expectancy_rating	fixation	0	5	1500	0	0	1	1495	1	+	-8	0	0	0	0	0	0
6	2023-03-30	12:40:30	13:30:08	13:30:08:362	87	2	Expectancy_rating	expectancy_rating	0	1500	0	0	50	0	4123	1	When you saw the <b>object</b>,   to what <b>degree (0-100%)</b> did you expect the <b>unpleasant sound to occur</b>?	-16	22	Cue22.jpg	-16	0	0	0
6	2023-03-30	12:40:30	13:30:10	13:30:10:365	88	1	Expectancy_rating	fixation	0	5	500	0	0	1	495	1	+	-8	0	0	0	0	0	0
6	2023-03-30	12:40:30	13:30:13	13:30:13:463	88	2	Expectancy_rating	expectancy_rating	0	1000	0	0	0	0	3068	1	When you saw the <b>object</b>,   to what <b>degree (0-100%)</b> did you expect the <b>unpleasant sound to occur</b>?	-16	44	Object4.jpg	-16	0	0	0
6	2023-03-30	12:40:30	13:30:15	13:30:15:465	89	1	Expectancy_rating	fixation	0	5	1000	0	0	1	995	1	+	-7	0	0	0	0	0	0
6	2023-03-30	12:40:30	13:30:30	13:30:30:230	89	2	Expectancy_rating	expectancy_rating	0	500	0	0	20	0	14735	1	When you saw the <b>object</b>,   to what <b>degree (0-100%)</b> did you expect the <b>unpleasant sound to occur</b>?	-16	37	Cue37.jpg	-16	0	0	0
6	2023-03-30	12:40:30	13:30:32	13:30:32:233	90	1	Expectancy_rating	fixation	0	5	1500	0	0	1	1495	1	+	-8	0	0	0	0	0	0
6	2023-03-30	12:40:30	13:30:44	13:30:44:948	90	2	Expectancy_rating	expectancy_rating	0	500	0	0	30	0	11664	1	When you saw the <b>object</b>,   to what <b>degree (0-100%)</b> did you expect the <b>unpleasant sound to occur</b>?	-16	10	Cue10.jpg	-16	0	0	0
6	2023-03-30	12:40:30	13:30:45	13:30:45:934	91	1	Expectancy_rating	fixation	0	5	500	0	0	1	495	1	+	-8	0	0	0	0	0	0
6	2023-03-30	12:40:30	13:30:48	13:30:48:898	91	2	Expectancy_rating	expectancy_rating	0	1000	0	0	20	0	2916	1	When you saw the <b>object</b>,   to what <b>degree (0-100%)</b> did you expect the <b>unpleasant sound to occur</b>?	-16	35	Cue35.jpg	-16	0	0	0
6	2023-03-30	12:40:30	13:30:50	13:30:50:384	92	1	Expectancy_rating	fixation	0	5	1500	0	0	1	1495	1	+	-8	0	0	0	0	0	0
6	2023-03-30	12:40:30	13:30:53	13:30:53:631	92	2	Expectancy_rating	expectancy_rating	0	1500	0	0	70	0	3193	1	When you saw the <b>object</b>,   to what <b>degree (0-100%)</b> did you expect the <b>unpleasant sound to occur</b>?	-16	13	Cue13.jpg	-16	0	0	0
6	2023-03-30	12:40:30	13:30:55	13:30:55:618	93	1	Expectancy_rating	fixation	0	5	500	0	0	1	495	1	+	-8	0	0	0	0	0	0
6	2023-03-30	12:40:30	13:30:59	13:30:59:949	93	2	Expectancy_rating	expectancy_rating	0	500	0	0	60	0	3278	1	When you saw the <b>object</b>,   to what <b>degree (0-100%)</b> did you expect the <b>unpleasant sound to occur</b>?	-16	15	Cue15.jpg	-16	0	0	0
6	2023-03-30	12:40:30	13:31:00	13:31:00:435	94	1	Expectancy_rating	fixation	0	5	1000	0	0	1	995	1	+	-8	0	0	0	0	0	0
6	2023-03-30	12:40:30	13:31:04	13:31:04:932	94	2	Expectancy_rating	expectancy_rating	0	1000	0	0	90	0	3446	1	When you saw the <b>object</b>,   to what <b>degree (0-100%)</b> did you expect the <b>unpleasant sound to occur</b>?	-16	2	Cue2.jpg	-16	0	0	0
6	2023-03-30	12:40:30	13:31:05	13:31:05:419	95	1	Expectancy_rating	fixation	0	5	500	0	0	1	495	1	+	-7	0	0	0	0	0	0
6	2023-03-30	12:40:30	13:31:09	13:31:09:516	95	2	Expectancy_rating	expectancy_rating	0	1500	0	0	10	0	4070	1	When you saw the <b>object</b>,   to what <b>degree (0-100%)</b> did you expect the <b>unpleasant sound to occur</b>?	-16	11	Cue11.jpg	-16	0	0	0
6	2023-03-30	12:40:30	13:31:12	13:31:12:019	96	1	Expectancy_rating	fixation	0	5	1000	0	0	1	995	1	+	-9	0	0	0	0	0	0
6	2023-03-30	12:40:30	13:31:14	13:31:14:433	96	2	Expectancy_rating	expectancy_rating	0	1000	0	0	50	0	2366	1	When you saw the <b>object</b>,   to what <b>degree (0-100%)</b> did you expect the <b>unpleasant sound to occur</b>?	-16	25	Cue25.jpg	-16	0	0	0
6	2023-03-30	12:40:30	13:31:17	13:31:17:919	97	1	Expectancy_rating	fixation	0	5	1500	0	0	1	1495	1	+	-9	0	0	0	0	0	0
6	2023-03-30	12:40:30	13:31:25	13:31:25:950	97	2	Expectancy_rating	expectancy_rating	0	500	0	0	30	0	8001	1	When you saw the <b>object</b>,   to what <b>degree (0-100%)</b> did you expect the <b>unpleasant sound to occur</b>?	-16	38	Cue38.jpg	-16	0	0	0
6	2023-03-30	12:40:30	13:31:27	13:31:27:953	98	1	Expectancy_rating	fixation	0	5	1500	0	0	1	1495	1	+	-8	0	0	0	0	0	0
6	2023-03-30	12:40:30	13:31:31	13:31:31:284	98	2	Expectancy_rating	expectancy_rating	0	1500	0	0	10	0	4303	1	When you saw the <b>object</b>,   to what <b>degree (0-100%)</b> did you expect the <b>unpleasant sound to occur</b>?	-16	45	Object5.jpg	-16	0	0	0
6	2023-03-30	12:40:30	13:31:33	13:31:33:287	99	1	Expectancy_rating	fixation	0	5	500	0	0	1	495	1	+	-8	0	0	0	0	0	0
6	2023-03-30	12:40:30	13:31:37	13:31:37:668	99	2	Expectancy_rating	expectancy_rating	0	1000	0	0	29	0	4330	1	When you saw the <b>object</b>,   to what <b>degree (0-100%)</b> did you expect the <b>unpleasant sound to occur</b>?	-16	26	Cue26.jpg	-16	0	0	0
6	2023-03-30	12:40:30	13:31:39	13:31:39:654	100	1	Expectancy_rating	fixation	0	5	1000	0	0	1	995	1	+	-8	0	0	0	0	0	0
6	2023-03-30	12:40:30	13:31:49	13:31:49:568	100	2	Expectancy_rating	expectancy_rating	0	500	0	0	79	0	9891	1	When you saw the <b>object</b>,   to what <b>degree (0-100%)</b> did you expect the <b>unpleasant sound to occur</b>?	-16	6	Cue6.jpg	-16	0	0	0
6	2023-03-30	12:40:30	13:31:50	13:31:50:571	101	1	Expectancy_rating	fixation	0	5	500	0	0	1	495	1	+	-6	0	0	0	0	0	0
6	2023-03-30	12:40:30	13:31:55	13:31:55:935	101	2	Expectancy_rating	expectancy_rating	0	1500	0	0	80	0	4309	1	When you saw the <b>object</b>,   to what <b>degree (0-100%)</b> did you expect the <b>unpleasant sound to occur</b>?	-16	9	Cue9.jpg	-16	0	0	0
6	2023-03-30	12:40:30	13:31:57	13:31:57:421	102	1	Expectancy_rating	fixation	0	5	1000	0	0	1	995	1	+	-8	0	0	0	0	0	0
6	2023-03-30	12:40:30	13:32:02	13:32:02:020	102	2	Expectancy_rating	expectancy_rating	0	1500	0	0	15	0	4571	1	When you saw the <b>object</b>,   to what <b>degree (0-100%)</b> did you expect the <b>unpleasant sound to occur</b>?	-16	20	Cue20.jpg	-16	0	0	0
6	2023-03-30	12:40:30	13:32:05	13:32:05:022	103	1	Expectancy_rating	fixation	0	5	1500	0	0	1	1495	1	+	-8	0	0	0	0	0	0
6	2023-03-30	12:40:30	13:32:07	13:32:07:670	103	2	Expectancy_rating	expectancy_rating	0	500	0	0	0	0	2618	1	When you saw the <b>object</b>,   to what <b>degree (0-100%)</b> did you expect the <b>unpleasant sound to occur</b>?	-16	48	Object8.jpg	-16	0	0	0
6	2023-03-30	12:40:30	13:32:09	13:32:09:173	104	1	Expectancy_rating	fixation	0	5	1000	0	0	1	995	1	+	-8	0	0	0	0	0	0
6	2023-03-30	12:40:30	13:32:13	13:32:13:303	104	2	Expectancy_rating	expectancy_rating	0	1000	0	0	28	0	4108	1	When you saw the <b>object</b>,   to what <b>degree (0-100%)</b> did you expect the <b>unpleasant sound to occur</b>?	-16	4	Cue4.jpg	-16	0	0	0
6	2023-03-30	12:40:30	13:32:15	13:32:15:806	105	1	Expectancy_rating	fixation	0	5	500	0	0	1	495	1	+	-8	0	0	0	0	0	0
6	2023-03-30	12:40:30	13:32:17	13:32:17:336	105	2	Expectancy_rating	expectancy_rating	0	1000	0	0	75	0	2483	1	When you saw the <b>object</b>,   to what <b>degree (0-100%)</b> did you expect the <b>unpleasant sound to occur</b>?	-16	5	Cue5.jpg	-16	0	0	0
6	2023-03-30	12:40:30	13:32:20	13:32:20:822	106	1	Expectancy_rating	fixation	0	5	1500	0	0	1	1495	1	+	-8	0	0	0	0	0	0
6	2023-03-30	12:40:30	13:32:37	13:32:37:321	106	2	Expectancy_rating	expectancy_rating	0	1500	0	0	50	0	17450	1	When you saw the <b>object</b>,   to what <b>degree (0-100%)</b> did you expect the <b>unpleasant sound to occur</b>?	-16	32	Cue32.jpg	-16	0	0	0
6	2023-03-30	12:40:30	13:32:39	13:32:39:307	107	1	Expectancy_rating	fixation	0	5	500	0	0	1	495	1	+	-8	0	0	0	0	0	0
6	2023-03-30	12:40:30	13:32:42	13:32:42:388	107	2	Expectancy_rating	expectancy_rating	0	500	0	0	30	0	3029	1	When you saw the <b>object</b>,   to what <b>degree (0-100%)</b> did you expect the <b>unpleasant sound to occur</b>?	-16	29	Cue29.jpg	-16	0	0	0
6	2023-03-30	12:40:30	13:32:44	13:32:44:374	108	1	Expectancy_rating	fixation	0	5	1500	0	0	1	1495	1	+	-9	0	0	0	0	0	0
6	2023-03-30	12:40:30	13:32:47	13:32:47:272	108	2	Expectancy_rating	expectancy_rating	0	1500	0	0	14	0	2874	1	When you saw the <b>object</b>,   to what <b>degree (0-100%)</b> did you expect the <b>unpleasant sound to occur</b>?	-16	28	Cue28.jpg	-16	0	0	0
6	2023-03-30	12:40:30	13:32:50	13:32:50:774	109	1	Expectancy_rating	fixation	0	5	1000	0	0	1	995	1	+	2	0	0	0	0	0	0
6	2023-03-30	12:40:30	13:32:52	13:32:52:539	109	2	Expectancy_rating	expectancy_rating	0	1000	0	0	80	0	2714	1	When you saw the <b>object</b>,   to what <b>degree (0-100%)</b> did you expect the <b>unpleasant sound to occur</b>?	-16	19	Cue19.jpg	-16	0	0	0
6	2023-03-30	12:40:30	13:32:54	13:32:54:525	110	1	Expectancy_rating	fixation	0	5	1000	0	0	1	995	1	+	-8	0	0	0	0	0	0
6	2023-03-30	12:40:30	13:32:57	13:32:57:255	110	2	Expectancy_rating	expectancy_rating	0	500	0	0	90	0	2676	1	When you saw the <b>object</b>,   to what <b>degree (0-100%)</b> did you expect the <b>unpleasant sound to occur</b>?	-16	27	Cue27.jpg	-16	0	0	0
6	2023-03-30	12:40:30	13:32:59	13:32:59:242	111	1	Expectancy_rating	fixation	0	5	1500	0	0	1	1495	1	+	-7	0	0	0	0	0	0
6	2023-03-30	12:40:30	13:33:02	13:33:02:123	111	2	Expectancy_rating	expectancy_rating	0	1000	0	0	13	0	2855	1	When you saw the <b>object</b>,   to what <b>degree (0-100%)</b> did you expect the <b>unpleasant sound to occur</b>?	-16	42	Object2.jpg	-16	0	0	0
6	2023-03-30	12:40:30	13:33:03	13:33:03:625	112	1	Expectancy_rating	fixation	0	5	500	0	0	1	495	1	+	-8	0	0	0	0	0	0
6	2023-03-30	12:40:30	13:33:06	13:33:06:290	112	2	Expectancy_rating	expectancy_rating	0	500	0	0	91	0	2639	1	When you saw the <b>object</b>,   to what <b>degree (0-100%)</b> did you expect the <b>unpleasant sound to occur</b>?	-16	8	Cue8.jpg	-16	0	0	0
6	2023-03-30	12:40:30	13:33:08	13:33:08:292	113	1	Expectancy_rating	fixation	0	5	1500	0	0	1	1495	1	+	-8	0	0	0	0	0	0
6	2023-03-30	12:40:30	13:33:14	13:33:14:090	113	2	Expectancy_rating	expectancy_rating	0	1500	0	0	20	0	5748	1	When you saw the <b>object</b>,   to what <b>degree (0-100%)</b> did you expect the <b>unpleasant sound to occur</b>?	-16	21	Cue21.jpg	-16	0	0	0
6	2023-03-30	12:40:30	13:33:30	13:33:30:626	114	1	continue_TNT	continue_TNT	0	5	0	0	0	0	15000	1	<center> <br><br><br> We will now continue with the next block of the attention task.   <br><br><br><center>Keep your fingers balanced on the <b>1, 2 and 3 </b>on the keyboard throughout the task   <br><br>to give the rating how well you were <b>able to think</b> or <b>not think</b> (1 = NEVER, 2 = BRIEFLY, 3 = OFTEN).  <br><br><br><br> <b>Press</b> the <b>button</b> on the <b>watch</b> for 1 second before you start!	-16	0	0	0	0	0	0
6	2023-03-30	12:40:30	13:33:31	13:33:31:126	115	1	TNT_NoThink_CSp	fixation	0	5	500	0	0	1	495	1	+	-9	0	0	0	0	0	0
6	2023-03-30	12:40:30	13:33:32	13:33:32:143	115	2	TNT_NoThink_CSp	NoThink	0	5	0	0	0	0	1000	1	DON'T THINK	-16	0	0	0	0	0	0
6	2023-03-30	12:40:30	13:33:37	13:33:37:160	115	3	TNT_NoThink_CSp	TNT_NoThink_CSp	0	5	0	0	0	0	5000	3	Cue23.jpg	-16	0	0	0	0	0	0
6	2023-03-30	12:40:30	13:33:39	13:33:39:666	115	4	TNT_NoThink_CSp	Intrusion	0	500	3000	0	0	0	2500	1	How <b>often</b> did you <b>think</b> about the <b>scene</b>?   <center><br><b>NEVER (1)    BRIEFLY (2)   OFTEN (3) </b>	-16	0	0	0	0	0	0
6	2023-03-30	12:40:30	13:33:41	13:33:41:164	116	1	TNT_Object_CSm	fixation	0	5	1000	0	0	1	995	1	+	-9	0	0	0	0	0	0
6	2023-03-30	12:40:30	13:33:42	13:33:42:177	116	2	TNT_Object_CSm	Passive	0	5	0	0	0	0	1000	1	VIEW	-16	0	0	0	0	0	0
6	2023-03-30	12:40:30	13:33:47	13:33:47:194	116	3	TNT_Object_CSm	TNT_Object_CSm	0	1000	0	0	0	0	5000	3	Object8.jpg	-16	0	0	0	0	0	0
6	2023-03-30	12:40:30	13:33:49	13:33:49:193	117	1	TNT_NoThink_CSp	fixation	0	5	1000	0	0	1	995	1	+	-8	0	0	0	0	0	0
6	2023-03-30	12:40:30	13:33:50	13:33:50:211	117	2	TNT_NoThink_CSp	NoThink	0	5	0	0	0	0	1000	1	DON'T THINK	-16	0	0	0	0	0	0
6	2023-03-30	12:40:30	13:33:55	13:33:55:228	117	3	TNT_NoThink_CSp	TNT_NoThink_CSp	0	5	0	0	0	0	5000	4	Cue28.jpg	-16	0	0	0	0	0	0
6	2023-03-30	12:40:30	13:33:56	13:33:56:825	117	4	TNT_NoThink_CSp	Intrusion	0	1500	3000	0	3	1	580	1	How <b>often</b> did you <b>think</b> about the <b>scene</b>?   <center><br><b>NEVER (1)    BRIEFLY (2)   OFTEN (3) </b>	-16	0	0	0	0	0	0
6	2023-03-30	12:40:30	13:33:59	13:33:59:732	118	1	TNT_NoThink_CSp	fixation	0	5	500	0	0	1	495	1	+	-16	0	0	0	0	0	0
6	2023-03-30	12:40:30	13:34:00	13:34:00:745	118	2	TNT_NoThink_CSp	NoThink	0	5	0	0	0	0	1000	1	DON'T THINK	-16	0	0	0	0	0	0
6	2023-03-30	12:40:30	13:34:05	13:34:05:761	118	3	TNT_NoThink_CSp	TNT_NoThink_CSp	0	5	0	0	0	0	5000	2	Cue34.jpg	-16	0	0	0	0	0	0
6	2023-03-30	12:40:30	13:34:05	13:34:05:185	118	4	TNT_NoThink_CSp	Intrusion	0	1000	3000	0	2	1	406	1	How <b>often</b> did you <b>think</b> about the <b>scene</b>?   <center><br><b>NEVER (1)    BRIEFLY (2)   OFTEN (3) </b>	-16	0	0	0	0	0	0
6	2023-03-30	12:40:30	13:34:09	13:34:09:265	119	1	TNT_NoThink_CSm	fixation	0	5	1500	0	0	1	1495	1	+	-8	0	0	0	0	0	0
6	2023-03-30	12:40:30	13:34:10	13:34:10:279	119	2	TNT_NoThink_CSm	NoThink	0	5	0	0	0	0	1000	1	DON'T THINK	-16	0	0	0	0	0	0
6	2023-03-30	12:40:30	13:34:15	13:34:15:296	119	3	TNT_NoThink_CSm	TNT_NoThink_CSm	0	5	0	0	0	0	5000	4	Cue32.jpg	-16	0	0	0	0	0	0
6	2023-03-30	12:40:30	13:34:16	13:34:16:825	119	4	TNT_NoThink_CSm	Intrusion	0	1000	3000	0	3	1	512	1	How <b>often</b> did you <b>think</b> about the <b>scene</b>?   <center><br><b>NEVER (1)    BRIEFLY (2)   OFTEN (3) </b>	-16	0	0	0	0	0	0
6	2023-03-30	12:40:30	13:34:20	13:34:20:800	120	1	TNT_Think_CSp	fixation	0	5	1500	0	0	1	1495	1	+	-16	0	0	0	0	0	0
6	2023-03-30	12:40:30	13:34:21	13:34:21:812	120	2	TNT_Think_CSp	Think	0	5	0	0	0	0	1000	1	THINK	-16	0	0	0	0	0	0
6	2023-03-30	12:40:30	13:34:26	13:34:26:829	120	3	TNT_Think_CSp	TNT_Think_CSp	0	5	0	0	0	0	5000	4	Cue33.jpg	-16	0	0	0	0	0	0
6	2023-03-30	12:40:30	13:34:28	13:34:28:337	120	4	TNT_Think_CSp	Intrusion	0	500	3000	0	0	0	2500	1	How <b>often</b> did you <b>think</b> about the <b>scene</b>?   <center><br><b>NEVER (1)    BRIEFLY (2)   OFTEN (3) </b>	-16	0	0	0	0	0	0
6	2023-03-30	12:40:30	13:34:29	13:34:29:333	121	1	TNT_NoThink_CSm	fixation	0	5	500	0	0	1	495	1	+	-9	0	0	0	0	0	0
6	2023-03-30	12:40:30	13:34:30	13:34:30:347	121	2	TNT_NoThink_CSm	NoThink	0	5	0	0	0	0	1000	1	DON'T THINK	-16	0	0	0	0	0	0
6	2023-03-30	12:40:30	13:34:35	13:34:35:363	121	3	TNT_NoThink_CSm	TNT_NoThink_CSm	0	5	0	0	0	0	5000	5	Cue24.jpg	-16	0	0	0	0	0	0
6	2023-03-30	12:40:30	13:34:36	13:34:36:857	121	4	TNT_NoThink_CSm	Intrusion	0	1500	3000	0	3	1	476	1	How <b>often</b> did you <b>think</b> about the <b>scene</b>?   <center><br><b>NEVER (1)    BRIEFLY (2)   OFTEN (3) </b>	-16	0	0	0	0	0	0
6	2023-03-30	12:40:30	13:34:39	13:34:39:368	122	1	TNT_Object_CSp	fixation	0	5	1000	0	0	1	995	1	+	-16	0	0	0	0	0	0
6	2023-03-30	12:40:30	13:34:40	13:34:40:380	122	2	TNT_Object_CSp	Passive	0	5	0	0	0	0	1000	1	VIEW	-16	0	0	0	0	0	0
6	2023-03-30	12:40:30	13:34:45	13:34:45:397	122	3	TNT_Object_CSp	TNT_Object_CSp	0	1000	0	0	0	0	5000	1	Object2.jpg	-16	0	0	0	0	0	0
6	2023-03-30	12:40:30	13:34:47	13:34:47:397	123	1	TNT_Object_CSm	fixation	0	5	1000	0	0	1	995	1	+	-8	0	0	0	0	0	0
6	2023-03-30	12:40:30	13:34:48	13:34:48:414	123	2	TNT_Object_CSm	Passive	0	5	0	0	0	0	1000	1	VIEW	-16	0	0	0	0	0	0
6	2023-03-30	12:40:30	13:34:53	13:34:53:431	123	3	TNT_Object_CSm	TNT_Object_CSm	0	1000	0	0	0	0	5000	4	Object5.jpg	-16	0	0	0	0	0	0
6	2023-03-30	12:40:30	13:34:56	13:34:56:931	124	1	TNT_Think_CSp	fixation	0	5	1500	0	0	1	1495	1	+	-8	0	0	0	0	0	0
6	2023-03-30	12:40:30	13:34:57	13:34:57:948	124	2	TNT_Think_CSp	Think	0	5	0	0	0	0	1000	1	THINK	-16	0	0	0	0	0	0
6	2023-03-30	12:40:30	13:35:02	13:35:02:965	124	3	TNT_Think_CSp	TNT_Think_CSp	0	5	0	0	0	0	5000	6	Cue29.jpg	-16	0	0	0	0	0	0
6	2023-03-30	12:40:30	13:35:04	13:35:04:161	124	4	TNT_Think_CSp	Intrusion	0	500	3000	0	4	1	2179	1	How <b>often</b> did you <b>think</b> about the <b>scene</b>?   <center><br><b>NEVER (1)    BRIEFLY (2)   OFTEN (3) </b>	-16	0	0	0	0	0	0
6	2023-03-30	12:40:30	13:35:05	13:35:05:469	125	1	TNT_Think_CSm	fixation	0	5	500	0	0	1	495	1	+	-16	0	0	0	0	0	0
6	2023-03-30	12:40:30	13:35:06	13:35:06:482	125	2	TNT_Think_CSm	Think	0	5	0	0	0	0	1000	1	THINK	-16	0	0	0	0	0	0
6	2023-03-30	12:40:30	13:35:11	13:35:11:499	125	3	TNT_Think_CSm	TNT_Think_CSm	0	5	0	0	0	0	5000	1	Cue14.jpg	-16	0	0	0	0	0	0
6	2023-03-30	12:40:30	13:35:13	13:35:13:07	125	4	TNT_Think_CSm	Intrusion	0	1500	3000	0	0	0	1500	1	How <b>often</b> did you <b>think</b> about the <b>scene</b>?   <center><br><b>NEVER (1)    BRIEFLY (2)   OFTEN (3) </b>	-16	0	0	0	0	0	0
6	2023-03-30	12:40:30	13:35:15	13:35:15:02	126	1	TNT_NoThink_CSm	fixation	0	5	500	0	0	1	495	1	+	-8	0	0	0	0	0	0
6	2023-03-30	12:40:30	13:35:16	13:35:16:016	126	2	TNT_NoThink_CSm	NoThink	0	5	0	0	0	0	1000	1	DON'T THINK	-16	0	0	0	0	0	0
6	2023-03-30	12:40:30	13:35:21	13:35:21:033	126	3	TNT_NoThink_CSm	TNT_NoThink_CSm	0	5	0	0	0	0	5000	6	Cue1.jpg	-16	0	0	0	0	0	0
6	2023-03-30	12:40:30	13:35:22	13:35:22:761	126	4	TNT_NoThink_CSm	Intrusion	0	1000	3000	0	3	1	711	1	How <b>often</b> did you <b>think</b> about the <b>scene</b>?   <center><br><b>NEVER (1)    BRIEFLY (2)   OFTEN (3) </b>	-16	0	0	0	0	0	0
6	2023-03-30	12:40:30	13:35:25	13:35:25:548	127	1	TNT_Think_CSp	fixation	0	5	1500	0	0	1	1495	1	+	-8	0	0	0	0	0	0
6	2023-03-30	12:40:30	13:35:26	13:35:26:566	127	2	TNT_Think_CSp	Think	0	5	0	0	0	0	1000	1	THINK	-16	0	0	0	0	0	0
6	2023-03-30	12:40:30	13:35:31	13:35:31:583	127	3	TNT_Think_CSp	TNT_Think_CSp	0	5	0	0	0	0	5000	1	Cue15.jpg	-16	0	0	0	0	0	0
6	2023-03-30	12:40:30	13:35:33	13:35:33:591	127	4	TNT_Think_CSp	Intrusion	0	1000	3000	0	0	0	2000	1	How <b>often</b> did you <b>think</b> about the <b>scene</b>?   <center><br><b>NEVER (1)    BRIEFLY (2)   OFTEN (3) </b>	-16	0	0	0	0	0	0
6	2023-03-30	12:40:30	13:35:35	13:35:35:587	128	1	TNT_Object_CSp	fixation	0	5	1000	0	0	1	995	1	+	-9	0	0	0	0	0	0
6	2023-03-30	12:40:30	13:35:36	13:35:36:600	128	2	TNT_Object_CSp	Passive	0	5	0	0	0	0	1000	1	VIEW	-16	0	0	0	0	0	0
6	2023-03-30	12:40:30	13:35:41	13:35:41:617	128	3	TNT_Object_CSp	TNT_Object_CSp	0	1000	0	0	0	0	5000	4	Object7.jpg	-16	0	0	0	0	0	0
6	2023-03-30	12:40:30	13:35:43	13:35:43:617	129	1	TNT_Think_CSm	fixation	0	5	1000	0	0	1	995	1	+	-8	0	0	0	0	0	0
6	2023-03-30	12:40:30	13:35:44	13:35:44:634	129	2	TNT_Think_CSm	Think	0	5	0	0	0	0	1000	1	THINK	-16	0	0	0	0	0	0
6	2023-03-30	12:40:30	13:35:49	13:35:49:651	129	3	TNT_Think_CSm	TNT_Think_CSm	0	5	0	0	0	0	5000	3	Cue30.jpg	-16	0	0	0	0	0	0
6	2023-03-30	12:40:30	13:35:51	13:35:51:159	129	4	TNT_Think_CSm	Intrusion	0	1500	3000	0	0	0	1500	1	How <b>often</b> did you <b>think</b> about the <b>scene</b>?   <center><br><b>NEVER (1)    BRIEFLY (2)   OFTEN (3) </b>	-16	0	0	0	0	0	0
6	2023-03-30	12:40:30	13:35:53	13:35:53:155	130	1	TNT_Think_CSp	fixation	0	5	500	0	0	1	495	1	+	-8	0	0	0	0	0	0
6	2023-03-30	12:40:30	13:35:54	13:35:54:168	130	2	TNT_Think_CSp	Think	0	5	0	0	0	0	1000	1	THINK	-16	0	0	0	0	0	0
6	2023-03-30	12:40:30	13:35:59	13:35:59:185	130	3	TNT_Think_CSp	TNT_Think_CSp	0	5	0	0	0	0	5000	5	Cue27.jpg	-16	0	0	0	0	0	0
6	2023-03-30	12:40:30	13:36:00	13:36:00:049	130	4	TNT_Think_CSp	Intrusion	0	500	3000	0	4	1	847	1	How <b>often</b> did you <b>think</b> about the <b>scene</b>?   <center><br><b>NEVER (1)    BRIEFLY (2)   OFTEN (3) </b>	-16	0	0	0	0	0	0
6	2023-03-30	12:40:30	13:36:04	13:36:04:688	131	1	TNT_Think_CSm	fixation	0	5	1500	0	0	1	1495	1	+	-8	0	0	0	0	0	0
6	2023-03-30	12:40:30	13:36:05	13:36:05:702	131	2	TNT_Think_CSm	Think	0	5	0	0	0	0	1000	1	THINK	-16	0	0	0	0	0	0
6	2023-03-30	12:40:30	13:36:10	13:36:10:719	131	3	TNT_Think_CSm	TNT_Think_CSm	0	5	0	0	0	0	5000	2	Cue22.jpg	-16	0	0	0	0	0	0
6	2023-03-30	12:40:30	13:36:11	13:36:11:913	131	4	TNT_Think_CSm	Intrusion	0	1000	3000	0	4	1	1177	1	How <b>often</b> did you <b>think</b> about the <b>scene</b>?   <center><br><b>NEVER (1)    BRIEFLY (2)   OFTEN (3) </b>	-16	0	0	0	0	0	0
6	2023-03-30	12:40:30	13:36:13	13:36:13:223	132	1	TNT_Object_CSm	fixation	0	5	500	0	0	1	495	1	+	-8	0	0	0	0	0	0
6	2023-03-30	12:40:30	13:36:14	13:36:14:236	132	2	TNT_Object_CSm	Passive	0	5	0	0	0	0	1000	1	VIEW	-16	0	0	0	0	0	0
6	2023-03-30	12:40:30	13:36:19	13:36:19:253	132	3	TNT_Object_CSm	TNT_Object_CSm	0	1500	0	0	0	0	5000	1	Object4.jpg	-16	0	0	0	0	0	0
6	2023-03-30	12:40:30	13:36:22	13:36:22:753	133	1	TNT_NoThink_CSp	fixation	0	5	1000	0	0	1	995	1	+	-8	0	0	0	0	0	0
6	2023-03-30	12:40:30	13:36:23	13:36:23:770	133	2	TNT_NoThink_CSp	NoThink	0	5	0	0	0	0	1000	1	DON'T THINK	-16	0	0	0	0	0	0
6	2023-03-30	12:40:30	13:36:28	13:36:28:786	133	3	TNT_NoThink_CSp	TNT_NoThink_CSp	0	5	0	0	0	0	5000	6	Cue12.jpg	-16	0	0	0	0	0	0
