subject	date	time	currenttime	currenttime_plus_ms	blocknum	trialnum	blockcode	trialcode	pretrialpause	posttrialpause	trialduration	trialtimeout	response	correct	latency	stimulusnumber1	stimulusitem1	stimulusonset1	stimulusnumber2	stimulusitem2	stimulusonset2	stimulusnumber3	stimulusitem3	stimulusonset3
7	2023-03-30	09:26:59	09:28:02	09:28:02:509	2	1	Reminder_Baseline_CSm	fixation	0	5	500	0	0	1	495	1	+	-9	0	0	0	0	0	0
7	2023-03-30	09:26:59	09:28:07	09:28:07:553	2	2	Reminder_Baseline_CSm	Baseline_CSm	0	5	0	0	0	0	5000	1	+	-16	3	Cue27.jpg	-16	3	Target27.jpg	-16
7	2023-03-30	09:26:59	09:28:12	09:28:12:084	2	3	Reminder_Baseline_CSm	valence	0	5	0	0	50	0	4469	1	I found these images to be...	-4	0	0	0	0	0	0
7	2023-03-30	09:26:59	09:28:18	09:28:18:551	2	4	Reminder_Baseline_CSm	expectancy	0	1000	0	0	0	0	6382	1	When you saw the <b>object-scene</b>,   to what <b>degree (0-100%)</b> did you expect the <b>unpleasant sound to occur</b>?	-4	0	0	0	0	0	0
7	2023-03-30	09:26:59	09:28:20	09:28:20:535	3	1	PracticeItems_NoThink	fixation	0	5	1000	0	0	1	995	1	+	-9	0	0	0	0	0	0
7	2023-03-30	09:26:59	09:28:25	09:28:25:554	3	2	PracticeItems_NoThink	PracticeItems_NoThink	0	5	0	0	0	0	5000	1	+	-16	2	Cue40.jpg	-16	2	Target40.jpg	-16
7	2023-03-30	09:26:59	09:28:30	09:28:30:302	3	3	PracticeItems_NoThink	valence	0	5	0	0	25	0	4724	1	I found these images to be...	-16	0	0	0	0	0	0
7	2023-03-30	09:26:59	09:28:34	09:28:34:135	3	4	PracticeItems_NoThink	expectancy	0	1500	0	0	100	0	3789	1	When you saw the <b>object-scene</b>,   to what <b>degree (0-100%)</b> did you expect the <b>unpleasant sound to occur</b>?	-12	0	0	0	0	0	0
7	2023-03-30	09:26:59	09:28:37	09:28:37:134	4	1	Reminder_Baseline_CSp	fixation	0	5	1500	0	0	1	1495	1	+	-13	0	0	0	0	0	0
7	2023-03-30	09:26:59	09:28:42	09:28:42:153	4	2	Reminder_Baseline_CSp	Baseline_CSp	0	5	0	0	0	0	5000	1	+	-11	3	Cue36.jpg	-11	3	Target36.jpg	-11
7	2023-03-30	09:26:59	09:28:44	09:28:44:540	4	3	Reminder_Baseline_CSp	valence	0	5	0	0	46	0	2371	1	I found these images to be...	-16	0	0	0	0	0	0
7	2023-03-30	09:26:59	09:28:50	09:28:50:653	4	4	Reminder_Baseline_CSp	expectancy	0	500	0	0	60	0	6067	1	When you saw the <b>object-scene</b>,   to what <b>degree (0-100%)</b> did you expect the <b>unpleasant sound to occur</b>?	-12	0	0	0	0	0	0
7	2023-03-30	09:26:59	09:28:52	09:28:52:153	5	1	Reminder_NoThink_CSm	fixation	0	5	1000	0	0	1	995	1	+	-12	0	0	0	0	0	0
7	2023-03-30	09:26:59	09:28:57	09:28:57:170	5	2	Reminder_NoThink_CSm	NoThink_CSm	0	5	0	0	0	0	5000	1	+	-16	4	Cue25.jpg	-16	4	Target25.jpg	-16
7	2023-03-30	09:26:59	09:28:59	09:28:59:937	5	3	Reminder_NoThink_CSm	valence	0	5	0	0	28	0	2745	1	I found these images to be...	-16	0	0	0	0	0	0
7	2023-03-30	09:26:59	09:29:02	09:29:02:404	5	4	Reminder_NoThink_CSm	expectancy	0	1000	0	0	26	0	2418	1	When you saw the <b>object-scene</b>,   to what <b>degree (0-100%)</b> did you expect the <b>unpleasant sound to occur</b>?	-11	0	0	0	0	0	0
7	2023-03-30	09:26:59	09:29:04	09:29:04:903	6	1	Reminder_Baseline_CSm	fixation	0	5	1500	0	0	1	1495	1	+	-12	0	0	0	0	0	0
7	2023-03-30	09:26:59	09:29:09	09:29:09:923	6	2	Reminder_Baseline_CSm	Baseline_CSm	0	5	0	0	0	0	5000	1	+	-16	6	Cue3.jpg	-16	6	Target3.jpg	-16
7	2023-03-30	09:26:59	09:29:14	09:29:14:421	6	3	Reminder_Baseline_CSm	valence	0	5	0	0	40	0	4467	1	I found these images to be...	-16	0	0	0	0	0	0
7	2023-03-30	09:26:59	09:29:20	09:29:20:671	6	4	Reminder_Baseline_CSm	expectancy	0	1500	0	0	10	0	6182	1	When you saw the <b>object-scene</b>,   to what <b>degree (0-100%)</b> did you expect the <b>unpleasant sound to occur</b>?	-12	0	0	0	0	0	0
7	2023-03-30	09:26:59	09:29:22	09:29:22:654	7	1	Reminder_Baseline_CSp	fixation	0	5	500	0	0	1	495	1	+	-13	0	0	0	0	0	0
7	2023-03-30	09:26:59	09:29:27	09:29:27:673	7	2	Reminder_Baseline_CSp	Baseline_CSp	0	5	0	0	0	0	5000	1	+	-16	1	Cue12.jpg	-16	1	Target12.jpg	-16
7	2023-03-30	09:26:59	09:29:29	09:29:29:072	7	3	Reminder_Baseline_CSp	valence	0	5	0	0	50	0	1381	1	I found these images to be...	-16	0	0	0	0	0	0
7	2023-03-30	09:26:59	09:29:31	09:29:31:889	7	4	Reminder_Baseline_CSp	expectancy	0	500	0	0	70	0	2779	1	When you saw the <b>object-scene</b>,   to what <b>degree (0-100%)</b> did you expect the <b>unpleasant sound to occur</b>?	-12	0	0	0	0	0	0
7	2023-03-30	09:26:59	09:29:33	09:29:33:889	8	1	Reminder_NoThink_CSp	fixation	0	5	1500	0	0	1	1495	1	+	-13	0	0	0	0	0	0
7	2023-03-30	09:26:59	09:29:38	09:29:38:906	8	2	Reminder_NoThink_CSp	NoThink_CSp	0	5	0	0	0	0	5000	1	+	-16	1	Cue29.jpg	-16	1	Target29.jpg	-16
7	2023-03-30	09:26:59	09:29:40	09:29:40:522	8	3	Reminder_NoThink_CSp	valence	0	5	0	0	50	0	1585	1	I found these images to be...	-16	0	0	0	0	0	0
7	2023-03-30	09:26:59	09:29:44	09:29:44:140	8	4	Reminder_NoThink_CSp	expectancy	0	1500	0	0	82	0	3568	1	When you saw the <b>object-scene</b>,   to what <b>degree (0-100%)</b> did you expect the <b>unpleasant sound to occur</b>?	-12	0	0	0	0	0	0
7	2023-03-30	09:26:59	09:29:46	09:29:46:639	9	1	Reminder_NoThink_CSm	fixation	0	5	1000	0	0	1	995	1	+	-12	0	0	0	0	0	0
7	2023-03-30	09:26:59	09:29:51	09:29:51:657	9	2	Reminder_NoThink_CSm	NoThink_CSm	0	5	0	0	0	0	5000	1	+	-10	5	Cue17.jpg	-10	5	Target17.jpg	-10
7	2023-03-30	09:26:59	09:29:52	09:29:52:657	9	3	Reminder_NoThink_CSm	valence	0	5	0	0	50	0	971	1	I found these images to be...	-16	0	0	0	0	0	0
7	2023-03-30	09:26:59	09:29:54	09:29:54:757	9	4	Reminder_NoThink_CSm	expectancy	0	500	0	0	0	0	2058	1	When you saw the <b>object-scene</b>,   to what <b>degree (0-100%)</b> did you expect the <b>unpleasant sound to occur</b>?	-12	0	0	0	0	0	0
7	2023-03-30	09:26:59	09:29:55	09:29:55:756	10	1	Reminder_NoThink_CSm	fixation	0	5	500	0	0	1	495	1	+	-12	0	0	0	0	0	0
7	2023-03-30	09:26:59	09:30:00	09:30:00:776	10	2	Reminder_NoThink_CSm	NoThink_CSm	0	5	0	0	0	0	5000	1	+	-16	3	Cue26.jpg	-16	3	Target26.jpg	-16
7	2023-03-30	09:26:59	09:30:03	09:30:03:340	10	3	Reminder_NoThink_CSm	valence	0	5	0	0	40	0	2509	1	I found these images to be...	-16	0	0	0	0	0	0
7	2023-03-30	09:26:59	09:30:05	09:30:05:441	10	4	Reminder_NoThink_CSm	expectancy	0	1000	0	0	0	0	2037	1	When you saw the <b>object-scene</b>,   to what <b>degree (0-100%)</b> did you expect the <b>unpleasant sound to occur</b>?	-7	0	0	0	0	0	0
7	2023-03-30	09:26:59	09:30:07	09:30:07:440	11	1	Reminder_Think_CSp	fixation	0	5	1000	0	0	1	995	1	+	-13	0	0	0	0	0	0
7	2023-03-30	09:26:59	09:30:12	09:30:12:458	11	2	Reminder_Think_CSp	Think_CSp	0	5	0	0	0	0	5000	1	+	-16	1	Cue20.jpg	-16	1	Target20.jpg	-16
7	2023-03-30	09:26:59	09:30:15	09:30:16:992	11	3	Reminder_Think_CSp	valence	0	5	0	0	30	0	3506	1	I found these images to be...	-16	0	0	0	0	0	0
7	2023-03-30	09:26:59	09:30:18	09:30:18:075	11	4	Reminder_Think_CSp	expectancy	0	1000	0	0	100	0	2043	1	When you saw the <b>object-scene</b>,   to what <b>degree (0-100%)</b> did you expect the <b>unpleasant sound to occur</b>?	-9	0	0	0	0	0	0
7	2023-03-30	09:26:59	09:30:19	09:30:19:574	12	1	Reminder_NoThink_CSp	fixation	0	5	500	0	0	1	495	1	+	-12	0	0	0	0	0	0
7	2023-03-30	09:26:59	09:30:24	09:30:24:592	12	2	Reminder_NoThink_CSp	NoThink_CSp	0	5	0	0	0	0	5000	1	+	-16	6	Cue35.jpg	-16	6	Target35.jpg	-16
7	2023-03-30	09:26:59	09:30:26	09:30:26:643	12	3	Reminder_NoThink_CSp	valence	0	5	0	0	45	0	2020	1	I found these images to be...	-16	0	0	0	0	0	0
7	2023-03-30	09:26:59	09:30:28	09:30:28:742	12	4	Reminder_NoThink_CSp	expectancy	0	1500	0	0	100	0	2057	1	When you saw the <b>object-scene</b>,   to what <b>degree (0-100%)</b> did you expect the <b>unpleasant sound to occur</b>?	-12	0	0	0	0	0	0
7	2023-03-30	09:26:59	09:30:31	09:30:31:742	13	1	Reminder_Baseline_CSm	fixation	0	5	1500	0	0	1	1495	1	+	-13	0	0	0	0	0	0
7	2023-03-30	09:26:59	09:30:36	09:30:36:760	13	2	Reminder_Baseline_CSm	Baseline_CSm	0	5	0	0	0	0	5000	1	+	-11	2	Cue19.jpg	-11	2	Target19.jpg	-11
7	2023-03-30	09:26:59	09:30:40	09:30:40:511	13	3	Reminder_Baseline_CSm	valence	0	5	0	0	37	0	3724	1	I found these images to be...	-16	0	0	0	0	0	0
7	2023-03-30	09:26:59	09:30:43	09:30:43:959	13	4	Reminder_Baseline_CSm	expectancy	0	500	0	0	20	0	3381	1	When you saw the <b>object-scene</b>,   to what <b>degree (0-100%)</b> did you expect the <b>unpleasant sound to occur</b>?	-12	0	0	0	0	0	0
7	2023-03-30	09:26:59	09:30:44	09:30:44:944	14	1	Reminder_Objects_CSp	fixation	0	5	500	0	0	1	495	1	+	-12	0	0	0	0	0	0
7	2023-03-30	09:26:59	09:30:49	09:30:49:962	14	2	Reminder_Objects_CSp	Objects_CSp	0	5	0	0	0	0	5000	1	Object3.jpg	-16	0	0	0	0	0	0
7	2023-03-30	09:26:59	09:30:54	09:30:54:361	14	3	Reminder_Objects_CSp	expectancy_object	0	500	0	0	100	0	4371	1	When you saw the <b>object</b>,   to what <b>degree (0-100%)</b> did you expect the <b>unpleasant sound to occur</b>?	-16	0	0	0	0	0	0
7	2023-03-30	09:26:59	09:30:55	09:30:55:860	15	1	Reminder_Think_CSm	fixation	0	5	1000	0	0	1	995	1	+	-13	0	0	0	0	0	0
7	2023-03-30	09:26:59	09:31:00	09:31:00:878	15	2	Reminder_Think_CSm	Think_CSm	0	5	0	0	0	0	5000	1	+	-16	5	Cue18.jpg	-16	5	Target18.jpg	-16
7	2023-03-30	09:26:59	09:31:04	09:31:04:211	15	3	Reminder_Think_CSm	valence	0	5	0	0	16	0	3302	1	I found these images to be...	-16	0	0	0	0	0	0
7	2023-03-30	09:26:59	09:31:08	09:31:08:778	15	4	Reminder_Think_CSm	expectancy	0	1000	0	0	65	0	4528	1	When you saw the <b>object-scene</b>,   to what <b>degree (0-100%)</b> did you expect the <b>unpleasant sound to occur</b>?	-12	0	0	0	0	0	0
7	2023-03-30	09:26:59	09:31:11	09:31:11:278	16	1	Reminder_Objects_CSp	fixation	0	5	1500	0	0	1	1495	1	+	-13	0	0	0	0	0	0
7	2023-03-30	09:26:59	09:31:16	09:31:16:295	16	2	Reminder_Objects_CSp	Objects_CSp	0	5	0	0	0	0	5000	2	Object7.jpg	-16	0	0	0	0	0	0
7	2023-03-30	09:26:59	09:31:19	09:31:19:329	16	3	Reminder_Objects_CSp	expectancy_object	0	1500	0	0	10	0	3012	1	When you saw the <b>object</b>,   to what <b>degree (0-100%)</b> did you expect the <b>unpleasant sound to occur</b>?	-16	0	0	0	0	0	0
7	2023-03-30	09:26:59	09:31:22	09:31:22:328	17	1	Reminder_Think_CSp	fixation	0	5	1500	0	0	1	1495	1	+	-13	0	0	0	0	0	0
7	2023-03-30	09:26:59	09:31:27	09:31:27:346	17	2	Reminder_Think_CSp	Think_CSp	0	5	0	0	0	0	5000	1	+	-16	5	Cue7.jpg	-16	5	Target7.jpg	-16
7	2023-03-30	09:26:59	09:31:29	09:31:29:313	17	3	Reminder_Think_CSp	valence	0	5	0	0	46	0	1914	1	I found these images to be...	-16	0	0	0	0	0	0
7	2023-03-30	09:26:59	09:31:32	09:31:32:930	17	4	Reminder_Think_CSp	expectancy	0	1500	0	0	10	0	3570	1	When you saw the <b>object-scene</b>,   to what <b>degree (0-100%)</b> did you expect the <b>unpleasant sound to occur</b>?	-9	0	0	0	0	0	0
7	2023-03-30	09:26:59	09:31:35	09:31:35:429	18	1	Reminder_Think_CSp	fixation	0	5	1000	0	0	1	995	1	+	-13	0	0	0	0	0	0
7	2023-03-30	09:26:59	09:31:40	09:31:40:449	18	2	Reminder_Think_CSp	Think_CSp	0	5	0	0	0	0	5000	1	+	-16	6	Cue2.jpg	-16	6	Target2.jpg	-16
7	2023-03-30	09:26:59	09:31:43	09:31:43:463	18	3	Reminder_Think_CSp	valence	0	5	0	0	40	0	2965	1	I found these images to be...	-16	0	0	0	0	0	0
7	2023-03-30	09:26:59	09:31:48	09:31:48:663	18	4	Reminder_Think_CSp	expectancy	0	500	0	0	71	0	5155	1	When you saw the <b>object-scene</b>,   to what <b>degree (0-100%)</b> did you expect the <b>unpleasant sound to occur</b>?	-9	0	0	0	0	0	0
7	2023-03-30	09:26:59	09:31:49	09:31:49:662	19	1	Reminder_NoThink_CSm	fixation	0	5	500	0	0	1	495	1	+	-12	0	0	0	0	0	0
7	2023-03-30	09:26:59	09:31:54	09:31:54:681	19	2	Reminder_NoThink_CSm	NoThink_CSm	0	5	0	0	0	0	5000	1	+	-10	6	Cue10.jpg	-10	6	Target10.jpg	-10
7	2023-03-30	09:26:59	09:31:56	09:31:56:597	19	3	Reminder_NoThink_CSm	valence	0	5	0	0	47	0	1867	1	I found these images to be...	-16	0	0	0	0	0	0
7	2023-03-30	09:26:59	09:32:00	09:32:00:864	19	4	Reminder_NoThink_CSm	expectancy	0	1500	0	0	0	0	4229	1	When you saw the <b>object-scene</b>,   to what <b>degree (0-100%)</b> did you expect the <b>unpleasant sound to occur</b>?	-12	0	0	0	0	0	0
7	2023-03-30	09:26:59	09:32:03	09:32:03:863	20	1	Reminder_Baseline_CSm	fixation	0	5	1500	0	0	1	1495	1	+	-12	0	0	0	0	0	0
7	2023-03-30	09:26:59	09:32:08	09:32:08:882	20	2	Reminder_Baseline_CSm	Baseline_CSm	0	5	0	0	0	0	5000	1	+	-11	4	Cue30.jpg	-11	4	Target30.jpg	-11
7	2023-03-30	09:26:59	09:32:09	09:32:09:915	20	3	Reminder_Baseline_CSm	valence	0	5	0	0	50	0	1010	1	I found these images to be...	-16	0	0	0	0	0	0
7	2023-03-30	09:26:59	09:32:12	09:32:12:265	20	4	Reminder_Baseline_CSm	expectancy	0	500	0	0	0	0	2312	1	When you saw the <b>object-scene</b>,   to what <b>degree (0-100%)</b> did you expect the <b>unpleasant sound to occur</b>?	-12	0	0	0	0	0	0
7	2023-03-30	09:26:59	09:32:13	09:32:13:266	21	1	Reminder_Objects_CSm	fixation	0	5	500	0	0	1	495	1	+	-13	0	0	0	0	0	0
7	2023-03-30	09:26:59	09:32:18	09:32:18:282	21	2	Reminder_Objects_CSm	Objects_CSm	0	5	0	0	0	0	5000	2	Object5.jpg	-16	0	0	0	0	0	0
7	2023-03-30	09:26:59	09:32:20	09:32:20:699	21	3	Reminder_Objects_CSm	expectancy_object	0	1000	0	0	0	0	2393	1	When you saw the <b>object</b>,   to what <b>degree (0-100%)</b> did you expect the <b>unpleasant sound to occur</b>?	-16	0	0	0	0	0	0
7	2023-03-30	09:26:59	09:32:22	09:32:22:698	22	1	Reminder_Objects_CSp	fixation	0	5	1000	0	0	1	995	1	+	-13	0	0	0	0	0	0
7	2023-03-30	09:26:59	09:32:27	09:32:27:718	22	2	Reminder_Objects_CSp	Objects_CSp	0	5	0	0	0	0	5000	3	Object6.jpg	-16	0	0	0	0	0	0
7	2023-03-30	09:26:59	09:32:34	09:32:34:833	22	3	Reminder_Objects_CSp	expectancy_object	0	1000	0	0	90	0	7063	1	When you saw the <b>object</b>,   to what <b>degree (0-100%)</b> did you expect the <b>unpleasant sound to occur</b>?	-16	0	0	0	0	0	0
7	2023-03-30	09:26:59	09:32:36	09:32:36:316	23	1	Reminder_Baseline_CSp	fixation	0	5	500	0	0	1	495	1	+	-12	0	0	0	0	0	0
7	2023-03-30	09:26:59	09:32:41	09:32:41:333	23	2	Reminder_Baseline_CSp	Baseline_CSp	0	5	0	0	0	0	5000	1	+	-16	5	Cue33.jpg	-16	5	Target33.jpg	-16
7	2023-03-30	09:26:59	09:32:45	09:32:45:317	23	3	Reminder_Baseline_CSp	valence	0	5	0	0	35	0	3958	1	I found these images to be...	-16	0	0	0	0	0	0
7	2023-03-30	09:26:59	09:32:48	09:32:48:783	23	4	Reminder_Baseline_CSp	expectancy	0	1000	0	0	100	0	3398	1	When you saw the <b>object-scene</b>,   to what <b>degree (0-100%)</b> did you expect the <b>unpleasant sound to occur</b>?	-11	0	0	0	0	0	0
7	2023-03-30	09:26:59	09:32:51	09:32:51:268	24	1	Reminder_NoThink_CSp	fixation	0	5	1500	0	0	1	1495	1	+	-13	0	0	0	0	0	0
7	2023-03-30	09:26:59	09:32:56	09:32:56:285	24	2	Reminder_NoThink_CSp	NoThink_CSp	0	5	0	0	0	0	5000	1	+	-16	4	Cue28.jpg	-16	4	Target28.jpg	-16
7	2023-03-30	09:26:59	09:32:59	09:32:59:985	24	3	Reminder_NoThink_CSp	valence	0	5	0	0	50	0	2671	1	I found these images to be...	-16	0	0	0	0	0	0
7	2023-03-30	09:26:59	09:33:02	09:33:02:018	24	4	Reminder_NoThink_CSp	expectancy	0	1000	0	0	70	0	2986	1	When you saw the <b>object-scene</b>,   to what <b>degree (0-100%)</b> did you expect the <b>unpleasant sound to occur</b>?	-12	0	0	0	0	0	0
7	2023-03-30	09:26:59	09:33:04	09:33:04:019	25	1	Reminder_Objects_CSm	fixation	0	5	1000	0	0	1	995	1	+	-13	0	0	0	0	0	0
7	2023-03-30	09:26:59	09:33:09	09:33:09:035	25	2	Reminder_Objects_CSm	Objects_CSm	0	5	0	0	0	0	5000	1	Object4.jpg	-16	0	0	0	0	0	0
7	2023-03-30	09:26:59	09:33:13	09:33:13:685	25	3	Reminder_Objects_CSm	expectancy_object	0	1500	0	0	10	0	4624	1	When you saw the <b>object</b>,   to what <b>degree (0-100%)</b> did you expect the <b>unpleasant sound to occur</b>?	-16	0	0	0	0	0	0
7	2023-03-30	09:26:59	09:33:16	09:33:16:186	26	1	Reminder_Baseline_CSp	fixation	0	5	1000	0	0	1	995	1	+	-10	0	0	0	0	0	0
7	2023-03-30	09:26:59	09:33:21	09:33:21:205	26	2	Reminder_Baseline_CSp	Baseline_CSp	0	5	0	0	0	0	5000	1	+	-16	4	Cue31.jpg	-16	4	Target31.jpg	-16
7	2023-03-30	09:26:59	09:33:24	09:33:24:569	26	3	Reminder_Baseline_CSp	valence	0	5	0	0	30	0	3337	1	I found these images to be...	-16	0	0	0	0	0	0
7	2023-03-30	09:26:59	09:33:31	09:33:31:187	26	4	Reminder_Baseline_CSp	expectancy	0	1500	0	0	50	0	6570	1	When you saw the <b>object-scene</b>,   to what <b>degree (0-100%)</b> did you expect the <b>unpleasant sound to occur</b>?	-11	0	0	0	0	0	0
7	2023-03-30	09:26:59	09:33:33	09:33:33:186	27	1	PracticeItems_Think	fixation	0	5	500	0	0	1	495	1	+	-13	0	0	0	0	0	0
7	2023-03-30	09:26:59	09:33:38	09:33:38:204	27	2	PracticeItems_Think	PracticeItems_Think	0	5	0	0	0	0	5000	1	+	-11	2	Cue38.jpg	-11	2	Target38.jpg	-11
7	2023-03-30	09:26:59	09:33:40	09:33:40:454	27	3	PracticeItems_Think	valence	0	5	0	0	35	0	2224	1	I found these images to be...	-16	0	0	0	0	0	0
7	2023-03-30	09:26:59	09:33:44	09:33:44:770	27	4	PracticeItems_Think	expectancy	0	500	0	0	10	0	4277	1	When you saw the <b>object-scene</b>,   to what <b>degree (0-100%)</b> did you expect the <b>unpleasant sound to occur</b>?	-12	0	0	0	0	0	0
7	2023-03-30	09:26:59	09:33:46	09:33:46:769	28	1	PracticeItems_NoThink	fixation	0	5	1500	0	0	1	1495	1	+	-12	0	0	0	0	0	0
7	2023-03-30	09:26:59	09:33:51	09:33:51:788	28	2	PracticeItems_NoThink	PracticeItems_NoThink	0	5	0	0	0	0	5000	1	+	-11	1	Cue39.jpg	-11	1	Target39.jpg	-11
7	2023-03-30	09:26:59	09:33:55	09:33:55:488	28	3	PracticeItems_NoThink	valence	0	5	0	0	40	0	3680	1	I found these images to be...	-16	0	0	0	0	0	0
7	2023-03-30	09:26:59	09:34:03	09:34:03:505	28	4	PracticeItems_NoThink	expectancy	0	1000	0	0	50	0	7979	1	When you saw the <b>object-scene</b>,   to what <b>degree (0-100%)</b> did you expect the <b>unpleasant sound to occur</b>?	-12	0	0	0	0	0	0
7	2023-03-30	09:26:59	09:34:05	09:34:05:05	29	1	Reminder_NoThink_CSm	fixation	0	5	500	0	0	1	495	1	+	-13	0	0	0	0	0	0
7	2023-03-30	09:26:59	09:34:10	09:34:10:025	29	2	Reminder_NoThink_CSm	NoThink_CSm	0	5	0	0	0	0	5000	1	+	-16	1	Cue34.jpg	-16	1	Target34.jpg	-16
7	2023-03-30	09:26:59	09:34:12	09:34:12:689	29	3	Reminder_NoThink_CSm	valence	0	5	0	0	47	0	2638	1	I found these images to be...	-16	0	0	0	0	0	0
7	2023-03-30	09:26:59	09:34:22	09:34:22:523	29	4	Reminder_NoThink_CSm	expectancy	0	1500	0	0	57	0	9794	1	When you saw the <b>object-scene</b>,   to what <b>degree (0-100%)</b> did you expect the <b>unpleasant sound to occur</b>?	0	0	0	0	0	0	0
7	2023-03-30	09:26:59	09:34:25	09:34:25:522	30	1	Reminder_Think_CSp	fixation	0	5	1500	0	0	1	1495	1	+	-12	0	0	0	0	0	0
7	2023-03-30	09:26:59	09:34:30	09:34:30:540	30	2	Reminder_Think_CSp	Think_CSp	0	5	0	0	0	0	5000	1	+	-16	3	Cue32.jpg	-16	3	Target32.jpg	-16
7	2023-03-30	09:26:59	09:34:32	09:34:32:640	30	3	Reminder_Think_CSp	valence	0	5	0	0	45	0	2072	1	I found these images to be...	-16	0	0	0	0	0	0
7	2023-03-30	09:26:59	09:34:35	09:34:35:641	30	4	Reminder_Think_CSp	expectancy	0	500	0	0	100	0	2955	1	When you saw the <b>object-scene</b>,   to what <b>degree (0-100%)</b> did you expect the <b>unpleasant sound to occur</b>?	-11	0	0	0	0	0	0
7	2023-03-30	09:26:59	09:34:37	09:34:37:141	31	1	Reminder_NoThink_CSp	fixation	0	5	1000	0	0	1	995	1	+	-13	0	0	0	0	0	0
7	2023-03-30	09:26:59	09:34:42	09:34:42:158	31	2	Reminder_NoThink_CSp	NoThink_CSp	0	5	0	0	0	0	5000	1	+	-16	2	Cue6.jpg	-16	2	Target6.jpg	-16
7	2023-03-30	09:26:59	09:34:43	09:34:43:241	31	3	Reminder_NoThink_CSp	valence	0	5	0	0	50	0	1054	1	I found these images to be...	-16	0	0	0	0	0	0
7	2023-03-30	09:26:59	09:34:47	09:34:47:291	31	4	Reminder_NoThink_CSp	expectancy	0	500	0	0	60	0	4002	1	When you saw the <b>object-scene</b>,   to what <b>degree (0-100%)</b> did you expect the <b>unpleasant sound to occur</b>?	-12	0	0	0	0	0	0
7	2023-03-30	09:26:59	09:34:49	09:34:49:290	32	1	Reminder_NoThink_CSm	fixation	0	5	1500	0	0	1	1495	1	+	-13	0	0	0	0	0	0
7	2023-03-30	09:26:59	09:34:54	09:34:54:310	32	2	Reminder_NoThink_CSm	NoThink_CSm	0	5	0	0	0	0	5000	1	+	-16	2	Cue22.jpg	-16	2	Target22.jpg	-16
7	2023-03-30	09:26:59	09:34:56	09:34:56:725	32	3	Reminder_NoThink_CSm	valence	0	5	0	0	45	0	2392	1	I found these images to be...	-16	0	0	0	0	0	0
7	2023-03-30	09:26:59	09:35:02	09:35:02:042	32	4	Reminder_NoThink_CSm	expectancy	0	1000	0	0	30	0	5270	1	When you saw the <b>object-scene</b>,   to what <b>degree (0-100%)</b> did you expect the <b>unpleasant sound to occur</b>?	0	0	0	0	0	0	0
7	2023-03-30	09:26:59	09:35:04	09:35:04:041	33	1	Reminder_Think_CSp	fixation	0	5	1000	0	0	1	995	1	+	-13	0	0	0	0	0	0
7	2023-03-30	09:26:59	09:35:09	09:35:09:059	33	2	Reminder_Think_CSp	Think_CSp	0	5	0	0	0	0	5000	1	+	-16	2	Cue4.jpg	-16	2	Target4.jpg	-16
7	2023-03-30	09:26:59	09:35:13	09:35:13:209	33	3	Reminder_Think_CSp	valence	0	5	0	0	45	0	4129	1	I found these images to be...	-16	0	0	0	0	0	0
7	2023-03-30	09:26:59	09:35:19	09:35:19:593	33	4	Reminder_Think_CSp	expectancy	0	1500	0	0	59	0	6346	1	When you saw the <b>object-scene</b>,   to what <b>degree (0-100%)</b> did you expect the <b>unpleasant sound to occur</b>?	-11	0	0	0	0	0	0
7	2023-03-30	09:26:59	09:35:21	09:35:21:592	34	1	Reminder_Think_CSm	fixation	0	5	500	0	0	1	495	1	+	-13	0	0	0	0	0	0
7	2023-03-30	09:26:59	09:35:26	09:35:26:610	34	2	Reminder_Think_CSm	Think_CSm	0	5	0	0	0	0	5000	1	+	-16	4	Cue15.jpg	-16	4	Target15.jpg	-16
7	2023-03-30	09:26:59	09:35:28	09:35:28:277	34	3	Reminder_Think_CSm	valence	0	5	0	0	44	0	1641	1	I found these images to be...	-16	0	0	0	0	0	0
7	2023-03-30	09:26:59	09:35:31	09:35:31:743	34	4	Reminder_Think_CSm	expectancy	0	1500	0	0	90	0	3398	1	When you saw the <b>object-scene</b>,   to what <b>degree (0-100%)</b> did you expect the <b>unpleasant sound to occur</b>?	-11	0	0	0	0	0	0
7	2023-03-30	09:26:59	09:35:34	09:35:34:727	35	1	Reminder_Think_CSm	fixation	0	5	1500	0	0	1	1495	1	+	-13	0	0	0	0	0	0
7	2023-03-30	09:26:59	09:35:39	09:35:39:744	35	2	Reminder_Think_CSm	Think_CSm	0	5	0	0	0	0	5000	1	+	-16	6	Cue14.jpg	-16	6	Target14.jpg	-16
7	2023-03-30	09:26:59	09:35:42	09:35:42:545	35	3	Reminder_Think_CSm	valence	0	5	0	0	37	0	2771	1	I found these images to be...	-16	0	0	0	0	0	0
7	2023-03-30	09:26:59	09:35:44	09:35:44:811	35	4	Reminder_Think_CSm	expectancy	0	1000	0	0	0	0	2219	1	When you saw the <b>object-scene</b>,   to what <b>degree (0-100%)</b> did you expect the <b>unpleasant sound to occur</b>?	-9	0	0	0	0	0	0
7	2023-03-30	09:26:59	09:35:46	09:35:46:311	36	1	Reminder_Objects_CSm	fixation	0	5	500	0	0	1	495	1	+	-12	0	0	0	0	0	0
7	2023-03-30	09:26:59	09:35:51	09:35:51:328	36	2	Reminder_Objects_CSm	Objects_CSm	0	5	0	0	0	0	5000	4	Object1.jpg	-16	0	0	0	0	0	0
7	2023-03-30	09:26:59	09:35:53	09:35:53:928	36	3	Reminder_Objects_CSm	expectancy_object	0	500	0	0	0	0	2579	1	When you saw the <b>object</b>,   to what <b>degree (0-100%)</b> did you expect the <b>unpleasant sound to occur</b>?	-16	0	0	0	0	0	0
7	2023-03-30	09:26:59	09:35:55	09:35:55:428	37	1	Reminder_Think_CSm	fixation	0	5	1000	0	0	1	995	1	+	-13	0	0	0	0	0	0
7	2023-03-30	09:26:59	09:36:00	09:36:00:446	37	2	Reminder_Think_CSm	Think_CSm	0	5	0	0	0	0	5000	1	+	-16	2	Cue24.jpg	-16	2	Target24.jpg	-16
7	2023-03-30	09:26:59	09:36:01	09:36:01:928	37	3	Reminder_Think_CSm	valence	0	5	0	0	50	0	1430	1	I found these images to be...	-16	0	0	0	0	0	0
7	2023-03-30	09:26:59	09:36:03	09:36:03:946	37	4	Reminder_Think_CSm	expectancy	0	500	0	0	0	0	1970	1	When you saw the <b>object-scene</b>,   to what <b>degree (0-100%)</b> did you expect the <b>unpleasant sound to occur</b>?	-11	0	0	0	0	0	0
7	2023-03-30	09:26:59	09:36:05	09:36:05:445	38	1	PracticeItems_Think	fixation	0	5	1000	0	0	1	995	1	+	-12	0	0	0	0	0	0
7	2023-03-30	09:26:59	09:36:10	09:36:10:463	38	2	PracticeItems_Think	PracticeItems_Think	0	5	0	0	0	0	5000	1	+	-16	1	Cue37.jpg	-16	1	Target37.jpg	-16
7	2023-03-30	09:26:59	09:36:12	09:36:12:579	38	3	PracticeItems_Think	valence	0	5	0	0	50	0	2093	1	I found these images to be...	-16	0	0	0	0	0	0
7	2023-03-30	09:26:59	09:36:16	09:36:16:096	38	4	PracticeItems_Think	expectancy	0	1500	0	0	37	0	3480	1	When you saw the <b>object-scene</b>,   to what <b>degree (0-100%)</b> did you expect the <b>unpleasant sound to occur</b>?	-12	0	0	0	0	0	0
7	2023-03-30	09:26:59	09:36:18	09:36:18:095	39	1	Reminder_NoThink_CSp	fixation	0	5	500	0	0	1	495	1	+	-12	0	0	0	0	0	0
7	2023-03-30	09:26:59	09:36:23	09:36:23:113	39	2	Reminder_NoThink_CSp	NoThink_CSp	0	5	0	0	0	0	5000	1	+	-11	5	Cue16.jpg	-11	5	Target16.jpg	-11
7	2023-03-30	09:26:59	09:36:24	09:36:24:131	39	3	Reminder_NoThink_CSp	valence	0	5	0	0	50	0	994	1	I found these images to be...	-16	0	0	0	0	0	0
7	2023-03-30	09:26:59	09:36:26	09:36:26:114	39	4	Reminder_NoThink_CSp	expectancy	0	1000	0	0	100	0	1945	1	When you saw the <b>object-scene</b>,   to what <b>degree (0-100%)</b> did you expect the <b>unpleasant sound to occur</b>?	-12	0	0	0	0	0	0
7	2023-03-30	09:26:59	09:36:28	09:36:28:615	40	1	Reminder_Think_CSm	fixation	0	5	1500	0	0	1	1495	1	+	-10	0	0	0	0	0	0
7	2023-03-30	09:26:59	09:36:33	09:36:33:633	40	2	Reminder_Think_CSm	Think_CSm	0	5	0	0	0	0	5000	1	+	-16	1	Cue21.jpg	-16	1	Target21.jpg	-16
7	2023-03-30	09:26:59	09:36:38	09:36:38:647	40	3	Reminder_Think_CSm	valence	0	5	0	0	40	0	4989	1	I found these images to be...	-16	0	0	0	0	0	0
7	2023-03-30	09:26:59	09:36:41	09:36:41:064	40	4	Reminder_Think_CSm	expectancy	0	500	0	0	90	0	2347	1	When you saw the <b>object-scene</b>,   to what <b>degree (0-100%)</b> did you expect the <b>unpleasant sound to occur</b>?	0	0	0	0	0	0	0
7	2023-03-30	09:26:59	09:36:43	09:36:43:047	41	1	Reminder_Objects_CSp	fixation	0	5	1500	0	0	1	1495	1	+	-13	0	0	0	0	0	0
7	2023-03-30	09:26:59	09:36:48	09:36:48:065	41	2	Reminder_Objects_CSp	Objects_CSp	0	5	0	0	0	0	5000	4	Object2.jpg	-16	0	0	0	0	0	0
7	2023-03-30	09:26:59	09:36:58	09:36:58:082	41	3	Reminder_Objects_CSp	expectancy_object	0	1500	0	0	76	0	9995	1	When you saw the <b>object</b>,   to what <b>degree (0-100%)</b> did you expect the <b>unpleasant sound to occur</b>?	-16	0	0	0	0	0	0
7	2023-03-30	09:26:59	09:37:00	09:37:00:082	42	1	Reminder_NoThink_CSp	fixation	0	5	500	0	0	1	495	1	+	-13	0	0	0	0	0	0
7	2023-03-30	09:26:59	09:37:05	09:37:05:099	42	2	Reminder_NoThink_CSp	NoThink_CSp	0	5	0	0	0	0	5000	1	+	-16	3	Cue8.jpg	-16	3	Target8.jpg	-16
7	2023-03-30	09:26:59	09:37:07	09:37:07:749	42	3	Reminder_NoThink_CSp	valence	0	5	0	0	46	0	2625	1	I found these images to be...	-16	0	0	0	0	0	0
7	2023-03-30	09:26:59	09:37:09	09:37:09:416	42	4	Reminder_NoThink_CSp	expectancy	0	1500	0	0	100	0	1630	1	When you saw the <b>object-scene</b>,   to what <b>degree (0-100%)</b> did you expect the <b>unpleasant sound to occur</b>?	-12	0	0	0	0	0	0
7	2023-03-30	09:26:59	09:37:11	09:37:11:916	43	1	Reminder_Think_CSm	fixation	0	5	1000	0	0	1	995	1	+	-12	0	0	0	0	0	0
7	2023-03-30	09:26:59	09:37:16	09:37:16:934	43	2	Reminder_Think_CSm	Think_CSm	0	5	0	0	0	0	5000	1	+	-10	3	Cue5.jpg	-10	3	Target5.jpg	-10
7	2023-03-30	09:26:59	09:37:19	09:37:19:651	43	3	Reminder_Think_CSm	valence	0	5	0	0	46	0	2686	1	I found these images to be...	-16	0	0	0	0	0	0
7	2023-03-30	09:26:59	09:37:22	09:37:22:400	43	4	Reminder_Think_CSm	expectancy	0	1000	0	0	10	0	2713	1	When you saw the <b>object-scene</b>,   to what <b>degree (0-100%)</b> did you expect the <b>unpleasant sound to occur</b>?	0	0	0	0	0	0	0
7	2023-03-30	09:26:59	09:37:24	09:37:24:900	44	1	Reminder_Think_CSp	fixation	0	5	1500	0	0	1	1495	1	+	-13	0	0	0	0	0	0
7	2023-03-30	09:26:59	09:37:29	09:37:29:918	44	2	Reminder_Think_CSp	Think_CSp	0	5	0	0	0	0	5000	1	+	-16	4	Cue1.jpg	-16	4	Target1.jpg	-16
7	2023-03-30	09:26:59	09:37:31	09:37:31:784	44	3	Reminder_Think_CSp	valence	0	5	0	0	46	0	1814	1	I found these images to be...	-16	0	0	0	0	0	0
7	2023-03-30	09:26:59	09:37:33	09:37:33:550	44	4	Reminder_Think_CSp	expectancy	0	500	0	0	100	0	1699	1	When you saw the <b>object-scene</b>,   to what <b>degree (0-100%)</b> did you expect the <b>unpleasant sound to occur</b>?	-9	0	0	0	0	0	0
7	2023-03-30	09:26:59	09:37:34	09:37:34:534	45	1	Reminder_Baseline_CSm	fixation	0	5	500	0	0	1	495	1	+	-13	0	0	0	0	0	0
7	2023-03-30	09:26:59	09:37:39	09:37:39:552	45	2	Reminder_Baseline_CSm	Baseline_CSm	0	5	0	0	0	0	5000	1	+	-10	5	Cue9.jpg	-10	5	Target9.jpg	-10
7	2023-03-30	09:26:59	09:37:44	09:37:44:751	45	3	Reminder_Baseline_CSm	valence	0	5	0	0	30	0	5180	1	I found these images to be...	-16	0	0	0	0	0	0
7	2023-03-30	09:26:59	09:37:54	09:37:54:085	45	4	Reminder_Baseline_CSm	expectancy	0	500	0	0	40	0	9291	1	When you saw the <b>object-scene</b>,   to what <b>degree (0-100%)</b> did you expect the <b>unpleasant sound to occur</b>?	-12	0	0	0	0	0	0
7	2023-03-30	09:26:59	09:37:55	09:37:55:585	46	1	Reminder_Baseline_CSp	fixation	0	5	1000	0	0	1	995	1	+	-12	0	0	0	0	0	0
7	2023-03-30	09:26:59	09:38:00	09:38:00:603	46	2	Reminder_Baseline_CSp	Baseline_CSp	0	5	0	0	0	0	5000	1	+	-16	6	Cue11.jpg	-16	6	Target11.jpg	-16
7	2023-03-30	09:26:59	09:38:02	09:38:02:03	46	3	Reminder_Baseline_CSp	valence	0	5	0	0	50	0	1369	1	I found these images to be...	-16	0	0	0	0	0	0
7	2023-03-30	09:26:59	09:38:07	09:38:07:720	46	4	Reminder_Baseline_CSp	expectancy	0	1000	0	0	100	0	5672	1	When you saw the <b>object-scene</b>,   to what <b>degree (0-100%)</b> did you expect the <b>unpleasant sound to occur</b>?	-10	0	0	0	0	0	0
7	2023-03-30	09:26:59	09:38:10	09:38:10:219	47	1	Reminder_Baseline_CSm	fixation	0	5	1500	0	0	1	1495	1	+	-12	0	0	0	0	0	0
7	2023-03-30	09:26:59	09:38:15	09:38:15:237	47	2	Reminder_Baseline_CSm	Baseline_CSm	0	5	0	0	0	0	5000	1	+	-16	1	Cue23.jpg	-16	1	Target23.jpg	-16
7	2023-03-30	09:26:59	09:38:17	09:38:17:403	47	3	Reminder_Baseline_CSm	valence	0	5	0	0	50	0	2135	1	I found these images to be...	-16	0	0	0	0	0	0
7	2023-03-30	09:26:59	09:38:20	09:38:20:703	47	4	Reminder_Baseline_CSm	expectancy	0	1500	0	0	71	0	3255	1	When you saw the <b>object-scene</b>,   to what <b>degree (0-100%)</b> did you expect the <b>unpleasant sound to occur</b>?	-12	0	0	0	0	0	0
7	2023-03-30	09:26:59	09:38:22	09:38:22:703	48	1	Reminder_Baseline_CSp	fixation	0	5	500	0	0	1	495	1	+	-13	0	0	0	0	0	0
7	2023-03-30	09:26:59	09:38:27	09:38:27:721	48	2	Reminder_Baseline_CSp	Baseline_CSp	0	5	0	0	0	0	5000	1	+	-16	2	Cue13.jpg	-16	2	Target13.jpg	-16
7	2023-03-30	09:26:59	09:38:31	09:38:31:121	48	3	Reminder_Baseline_CSp	valence	0	5	0	0	44	0	3371	1	I found these images to be...	-16	0	0	0	0	0	0
7	2023-03-30	09:26:59	09:38:33	09:38:33:838	48	4	Reminder_Baseline_CSp	expectancy	0	1000	0	0	40	0	2674	1	When you saw the <b>object-scene</b>,   to what <b>degree (0-100%)</b> did you expect the <b>unpleasant sound to occur</b>?	-11	0	0	0	0	0	0
7	2023-03-30	09:26:59	09:38:35	09:38:35:837	49	1	Reminder_Objects_CSm	fixation	0	5	1000	0	0	1	995	1	+	-12	0	0	0	0	0	0
7	2023-03-30	09:26:59	09:38:40	09:38:40:855	49	2	Reminder_Objects_CSm	Objects_CSm	0	5	0	0	0	0	5000	3	Object8.jpg	-16	0	0	0	0	0	0
7	2023-03-30	09:26:59	09:38:43	09:38:43:854	49	3	Reminder_Objects_CSm	expectancy_object	0	500	0	0	10	0	2948	1	When you saw the <b>object</b>,   to what <b>degree (0-100%)</b> did you expect the <b>unpleasant sound to occur</b>?	-16	0	0	0	0	0	0
7	2023-03-30	09:26:59	09:42:47	09:42:47:501	2	1	Practice_NoThink	fixation	0	5	500	0	0	1	495	1	+	-16	0	0	0	0	0	0
7	2023-03-30	09:26:59	09:42:48	09:42:48:519	2	2	Practice_NoThink	NoThink	0	5	0	0	0	0	1000	1	DON'T THINK	-16	0	0	0	0	0	0
7	2023-03-30	09:26:59	09:42:53	09:42:53:536	2	3	Practice_NoThink	NoThinkCue	0	5	0	0	0	1	5000	1	Cue39.jpg	-16	0	0	0	0	0	0
7	2023-03-30	09:26:59	09:42:54	09:42:54:903	2	4	Practice_NoThink	Intrusion	0	1000	3000	0	80	1	1333	1	How <b>often</b> did you <b>think</b> about the <b>scene</b>?   <center><br><b>NEVER (1)    BRIEFLY (2)   OFTEN (3) </b>	-13	0	0	0	0	0	0
7	2023-03-30	09:26:59	09:42:57	09:42:57:540	3	1	Practice_Think	fixation	0	5	1000	0	0	1	995	1	+	-16	0	0	0	0	0	0
7	2023-03-30	09:26:59	09:42:58	09:42:58:553	3	2	Practice_Think	Think	0	5	0	0	0	0	1000	1	THINK	-16	0	0	0	0	0	0
7	2023-03-30	09:26:59	09:43:03	09:43:03:570	3	3	Practice_Think	ThinkCue	0	5	0	0	0	1	5000	2	Cue38.jpg	-16	0	0	0	0	0	0
7	2023-03-30	09:26:59	09:43:04	09:43:04:567	3	4	Practice_Think	Intrusion	0	500	3000	0	81	1	980	1	How <b>often</b> did you <b>think</b> about the <b>scene</b>?   <center><br><b>NEVER (1)    BRIEFLY (2)   OFTEN (3) </b>	-16	0	0	0	0	0	0
7	2023-03-30	09:26:59	09:43:07	09:43:07:074	4	1	Practice_Think	fixation	0	5	1500	0	0	1	1495	1	+	-8	0	0	0	0	0	0
7	2023-03-30	09:26:59	09:43:08	09:43:08:087	4	2	Practice_Think	Think	0	5	0	0	0	0	1000	1	THINK	-16	0	0	0	0	0	0
7	2023-03-30	09:26:59	09:43:13	09:43:13:104	4	3	Practice_Think	ThinkCue	0	5	0	0	0	1	5000	1	Cue37.jpg	-16	0	0	0	0	0	0
7	2023-03-30	09:26:59	09:43:14	09:43:14:839	4	4	Practice_Think	Intrusion	0	1500	3000	0	81	1	718	1	How <b>often</b> did you <b>think</b> about the <b>scene</b>?   <center><br><b>NEVER (1)    BRIEFLY (2)   OFTEN (3) </b>	-16	0	0	0	0	0	0
7	2023-03-30	09:26:59	09:43:17	09:43:17:608	5	1	Practice_NoThink	fixation	0	5	500	0	0	1	495	1	+	-8	0	0	0	0	0	0
7	2023-03-30	09:26:59	09:43:18	09:43:18:621	5	2	Practice_NoThink	NoThink	0	5	0	0	0	0	1000	1	DON'T THINK	-16	0	0	0	0	0	0
7	2023-03-30	09:26:59	09:43:23	09:43:23:638	5	3	Practice_NoThink	NoThinkCue	0	5	0	0	0	1	5000	2	Cue40.jpg	-16	0	0	0	0	0	0
7	2023-03-30	09:26:59	09:43:24	09:43:24:146	5	4	Practice_NoThink	Intrusion	0	1500	3000	0	0	0	1500	1	How <b>often</b> did you <b>think</b> about the <b>scene</b>?   <center><br><b>NEVER (1)    BRIEFLY (2)   OFTEN (3) </b>	-16	0	0	0	0	0	0
7	2023-03-30	09:26:59	09:46:06	09:46:06:110	6	1	Practice_Betweenblocks1	Practice_Betweenblocks1	0	5	0	0	57	1	160439	1	<center><br><br><br><br>This is the end of the first practice round. <br><br>There will be 2 more practice rounds.  <br><br> Please await further instruction from the experimenter.	-16	0	0	0	0	0	0
7	2023-03-30	09:26:59	09:46:07	09:46:07:114	7	1	Practice_Think	fixation	0	5	1000	0	0	1	995	1	+	-8	0	0	0	0	0	0
7	2023-03-30	09:26:59	09:46:08	09:46:08:131	7	2	Practice_Think	Think	0	5	0	0	0	0	1000	1	THINK	-16	0	0	0	0	0	0
7	2023-03-30	09:26:59	09:46:13	09:46:13:148	7	3	Practice_Think	ThinkCue	0	5	0	0	0	1	5000	2	Cue38.jpg	-16	0	0	0	0	0	0
7	2023-03-30	09:26:59	09:46:14	09:46:14:918	7	4	Practice_Think	Intrusion	0	1000	3000	0	81	1	754	1	How <b>often</b> did you <b>think</b> about the <b>scene</b>?   <center><br><b>NEVER (1)    BRIEFLY (2)   OFTEN (3) </b>	-16	0	0	0	0	0	0
7	2023-03-30	09:26:59	09:46:18	09:46:18:652	8	1	Practice_Think	fixation	0	5	1500	0	0	1	1495	1	+	-8	0	0	0	0	0	0
7	2023-03-30	09:26:59	09:46:19	09:46:19:665	8	2	Practice_Think	Think	0	5	0	0	0	0	1000	1	THINK	-16	0	0	0	0	0	0
7	2023-03-30	09:26:59	09:46:24	09:46:24:682	8	3	Practice_Think	ThinkCue	0	5	0	0	0	1	5000	1	Cue37.jpg	-16	0	0	0	0	0	0
7	2023-03-30	09:26:59	09:46:24	09:46:24:078	8	4	Practice_Think	Intrusion	0	500	3000	0	81	1	379	1	How <b>often</b> did you <b>think</b> about the <b>scene</b>?   <center><br><b>NEVER (1)    BRIEFLY (2)   OFTEN (3) </b>	-16	0	0	0	0	0	0
7	2023-03-30	09:26:59	09:46:28	09:46:28:686	9	1	Practice_NoThink	fixation	0	5	1000	0	0	1	995	1	+	-16	0	0	0	0	0	0
7	2023-03-30	09:26:59	09:46:29	09:46:29:699	9	2	Practice_NoThink	NoThink	0	5	0	0	0	0	1000	1	DON'T THINK	-16	0	0	0	0	0	0
7	2023-03-30	09:26:59	09:46:34	09:46:34:715	9	3	Practice_NoThink	NoThinkCue	0	5	0	0	0	1	5000	1	Cue39.jpg	-16	0	0	0	0	0	0
7	2023-03-30	09:26:59	09:46:35	09:46:35:622	9	4	Practice_NoThink	Intrusion	0	1500	3000	0	79	1	890	1	How <b>often</b> did you <b>think</b> about the <b>scene</b>?   <center><br><b>NEVER (1)    BRIEFLY (2)   OFTEN (3) </b>	-16	0	0	0	0	0	0
7	2023-03-30	09:26:59	09:46:37	09:46:37:219	10	1	Practice_NoThink	fixation	0	5	500	0	0	1	495	1	+	-9	0	0	0	0	0	0
7	2023-03-30	09:26:59	09:46:38	09:46:38:233	10	2	Practice_NoThink	NoThink	0	5	0	0	0	0	1000	1	DON'T THINK	-16	0	0	0	0	0	0
7	2023-03-30	09:26:59	09:46:43	09:46:43:249	10	3	Practice_NoThink	NoThinkCue	0	5	0	0	0	1	5000	2	Cue40.jpg	-16	0	0	0	0	0	0
7	2023-03-30	09:26:59	09:46:44	09:46:44:822	10	4	Practice_NoThink	Intrusion	0	1000	3000	0	80	1	556	1	How <b>often</b> did you <b>think</b> about the <b>scene</b>?   <center><br><b>NEVER (1)    BRIEFLY (2)   OFTEN (3) </b>	-16	0	0	0	0	0	0
7	2023-03-30	09:26:59	09:47:37	09:47:37:782	11	1	Practice_Betweenblocks2	Practice_Betweenblocks2	0	5	0	0	57	1	50498	1	<center><br><br><br><br>This is the end of the second practice round. <br><br>There will be 1 more practice round.  <br><br> Please await further instruction from the experimenter.	-16	0	0	0	0	0	0
7	2023-03-30	09:26:59	09:47:38	09:47:38:284	12	1	Practice_NoThink	fixation	0	5	1500	0	0	1	1495	1	+	-9	0	0	0	0	0	0
7	2023-03-30	09:26:59	09:47:39	09:47:39:303	12	2	Practice_NoThink	NoThink	0	5	0	0	0	0	1000	1	DON'T THINK	-16	0	0	0	0	0	0
7	2023-03-30	09:26:59	09:47:44	09:47:44:320	12	3	Practice_NoThink	NoThinkCue	0	5	0	0	0	1	5000	1	Cue39.jpg	-16	0	0	0	0	0	0
7	2023-03-30	09:26:59	09:47:45	09:47:45:342	12	4	Practice_NoThink	Intrusion	0	500	3000	0	79	1	1005	1	How <b>often</b> did you <b>think</b> about the <b>scene</b>?   <center><br><b>NEVER (1)    BRIEFLY (2)   OFTEN (3) </b>	-16	0	0	0	0	0	0
7	2023-03-30	09:26:59	09:47:48	09:47:48:324	13	1	Practice_Think	fixation	0	5	1000	0	0	1	995	1	+	-8	0	0	0	0	0	0
7	2023-03-30	09:26:59	09:47:49	09:47:49:336	13	2	Practice_Think	Think	0	5	0	0	0	0	1000	1	THINK	-16	0	0	0	0	0	0
7	2023-03-30	09:26:59	09:47:54	09:47:54:353	13	3	Practice_Think	ThinkCue	0	5	0	0	0	1	5000	2	Cue38.jpg	-16	0	0	0	0	0	0
7	2023-03-30	09:26:59	09:47:55	09:47:55:958	13	4	Practice_Think	Intrusion	0	500	3000	0	81	1	587	1	How <b>often</b> did you <b>think</b> about the <b>scene</b>?   <center><br><b>NEVER (1)    BRIEFLY (2)   OFTEN (3) </b>	-16	0	0	0	0	0	0
7	2023-03-30	09:26:59	09:47:58	09:47:58:858	14	1	Practice_NoThink	fixation	0	5	500	0	0	1	495	1	+	-7	0	0	0	0	0	0
7	2023-03-30	09:26:59	09:47:59	09:47:59:871	14	2	Practice_NoThink	NoThink	0	5	0	0	0	0	1000	1	DON'T THINK	-16	0	0	0	0	0	0
7	2023-03-30	09:26:59	09:48:04	09:48:04:887	14	3	Practice_NoThink	NoThinkCue	0	5	0	0	0	1	5000	2	Cue40.jpg	-16	0	0	0	0	0	0
7	2023-03-30	09:26:59	09:48:04	09:48:04:286	14	4	Practice_NoThink	Intrusion	0	1500	3000	0	79	1	381	1	How <b>often</b> did you <b>think</b> about the <b>scene</b>?   <center><br><b>NEVER (1)    BRIEFLY (2)   OFTEN (3) </b>	-16	0	0	0	0	0	0
7	2023-03-30	09:26:59	09:48:08	09:48:08:391	15	1	Practice_Think	fixation	0	5	1500	0	0	1	1495	1	+	-16	0	0	0	0	0	0
7	2023-03-30	09:26:59	09:48:09	09:48:09:404	15	2	Practice_Think	Think	0	5	0	0	0	0	1000	1	THINK	-16	0	0	0	0	0	0
7	2023-03-30	09:26:59	09:48:14	09:48:14:421	15	3	Practice_Think	ThinkCue	0	5	0	0	0	1	5000	1	Cue37.jpg	-16	0	0	0	0	0	0
7	2023-03-30	09:26:59	09:48:15	09:48:15:814	15	4	Practice_Think	Intrusion	0	1000	3000	0	81	1	375	1	How <b>often</b> did you <b>think</b> about the <b>scene</b>?   <center><br><b>NEVER (1)    BRIEFLY (2)   OFTEN (3) </b>	-16	0	0	0	0	0	0
7	2023-03-30	09:26:59	09:50:49	09:50:49:502	2	1	TNT_Think_CSp	fixation	0	5	500	0	0	1	495	1	+	-8	0	0	0	0	0	0
7	2023-03-30	09:26:59	09:50:50	09:50:50:518	2	2	TNT_Think_CSp	Think	0	5	0	0	0	0	1000	1	THINK	-16	0	0	0	0	0	0
7	2023-03-30	09:26:59	09:50:55	09:50:55:535	2	3	TNT_Think_CSp	TNT_Think_CSp	0	5	0	0	0	0	5000	6	Cue2.jpg	-16	0	0	0	0	0	0
7	2023-03-30	09:26:59	09:50:56	09:50:56:044	2	4	TNT_Think_CSp	Intrusion	0	1500	3000	0	0	0	1500	1	How <b>often</b> did you <b>think</b> about the <b>scene</b>?   <center><br><b>NEVER (1)    BRIEFLY (2)   OFTEN (3) </b>	-16	0	0	0	0	0	0
7	2023-03-30	09:26:59	09:50:59	09:50:59:539	3	1	TNT_Think_CSp	fixation	0	5	1000	0	0	1	995	1	+	-3	0	0	0	0	0	0
7	2023-03-30	09:26:59	09:51:00	09:51:00:552	3	2	TNT_Think_CSp	Think	0	5	0	0	0	0	1000	1	THINK	-16	0	0	0	0	0	0
7	2023-03-30	09:26:59	09:51:05	09:51:05:569	3	3	TNT_Think_CSp	TNT_Think_CSp	0	5	0	0	0	0	5000	5	Cue7.jpg	-16	0	0	0	0	0	0
7	2023-03-30	09:26:59	09:51:05	09:51:05:983	3	4	TNT_Think_CSp	Intrusion	0	500	3000	0	81	1	396	1	How <b>often</b> did you <b>think</b> about the <b>scene</b>?   <center><br><b>NEVER (1)    BRIEFLY (2)   OFTEN (3) </b>	-16	0	0	0	0	0	0
7	2023-03-30	09:26:59	09:51:09	09:51:09:073	4	1	TNT_NoThink_CSm	fixation	0	5	1500	0	0	1	1495	1	+	-8	0	0	0	0	0	0
7	2023-03-30	09:26:59	09:51:10	09:51:10:087	4	2	TNT_NoThink_CSm	NoThink	0	5	0	0	0	0	1000	1	DON'T THINK	-16	0	0	0	0	0	0
7	2023-03-30	09:26:59	09:51:15	09:51:15:103	4	3	TNT_NoThink_CSm	TNT_NoThink_CSm	0	5	0	0	0	0	5000	4	Cue25.jpg	-16	0	0	0	0	0	0
7	2023-03-30	09:26:59	09:51:16	09:51:16:703	4	4	TNT_NoThink_CSm	Intrusion	0	1000	3000	0	79	1	582	1	How <b>often</b> did you <b>think</b> about the <b>scene</b>?   <center><br><b>NEVER (1)    BRIEFLY (2)   OFTEN (3) </b>	-16	0	0	0	0	0	0
7	2023-03-30	09:26:59	09:51:19	09:51:19:607	5	1	TNT_Object_CSm	fixation	0	5	500	0	0	1	495	1	+	-9	0	0	0	0	0	0
7	2023-03-30	09:26:59	09:51:20	09:51:20:620	5	2	TNT_Object_CSm	Passive	0	5	0	0	0	0	1000	1	VIEW	-16	0	0	0	0	0	0
7	2023-03-30	09:26:59	09:51:25	09:51:25:637	5	3	TNT_Object_CSm	TNT_Object_CSm	0	1500	0	0	0	0	5000	4	Object1.jpg	-16	0	0	0	0	0	0
7	2023-03-30	09:26:59	09:51:28	09:51:28:635	6	1	TNT_NoThink_CSm	fixation	0	5	1500	0	0	1	1495	1	+	-8	0	0	0	0	0	0
7	2023-03-30	09:26:59	09:51:29	09:51:29:654	6	2	TNT_NoThink_CSm	NoThink	0	5	0	0	0	0	1000	1	DON'T THINK	-16	0	0	0	0	0	0
7	2023-03-30	09:26:59	09:51:34	09:51:34:671	6	3	TNT_NoThink_CSm	TNT_NoThink_CSm	0	5	0	0	0	0	5000	3	Cue26.jpg	-16	0	0	0	0	0	0
7	2023-03-30	09:26:59	09:51:34	09:51:34:071	6	4	TNT_NoThink_CSm	Intrusion	0	1500	3000	0	80	1	382	1	How <b>often</b> did you <b>think</b> about the <b>scene</b>?   <center><br><b>NEVER (1)    BRIEFLY (2)   OFTEN (3) </b>	-16	0	0	0	0	0	0
7	2023-03-30	09:26:59	09:51:38	09:51:38:674	7	1	TNT_NoThink_CSp	fixation	0	5	1000	0	0	1	995	1	+	-8	0	0	0	0	0	0
7	2023-03-30	09:26:59	09:51:39	09:51:39:688	7	2	TNT_NoThink_CSp	NoThink	0	5	0	0	0	0	1000	1	DON'T THINK	-16	0	0	0	0	0	0
7	2023-03-30	09:26:59	09:51:44	09:51:44:705	7	3	TNT_NoThink_CSp	TNT_NoThink_CSp	0	5	0	0	0	0	5000	1	Cue29.jpg	-16	0	0	0	0	0	0
7	2023-03-30	09:26:59	09:51:45	09:51:45:423	7	4	TNT_NoThink_CSp	Intrusion	0	1000	3000	0	80	1	701	1	How <b>often</b> did you <b>think</b> about the <b>scene</b>?   <center><br><b>NEVER (1)    BRIEFLY (2)   OFTEN (3) </b>	-16	0	0	0	0	0	0
7	2023-03-30	09:26:59	09:51:49	09:51:49:209	8	1	TNT_Think_CSm	fixation	0	5	1500	0	0	1	1495	1	+	-7	0	0	0	0	0	0
7	2023-03-30	09:26:59	09:51:50	09:51:50:222	8	2	TNT_Think_CSm	Think	0	5	0	0	0	0	1000	1	THINK	-16	0	0	0	0	0	0
7	2023-03-30	09:26:59	09:51:55	09:51:55:239	8	3	TNT_Think_CSm	TNT_Think_CSm	0	5	0	0	0	0	5000	3	Cue5.jpg	-16	0	0	0	0	0	0
7	2023-03-30	09:26:59	09:51:55	09:51:55:615	8	4	TNT_Think_CSm	Intrusion	0	500	3000	0	81	1	358	1	How <b>often</b> did you <b>think</b> about the <b>scene</b>?   <center><br><b>NEVER (1)    BRIEFLY (2)   OFTEN (3) </b>	-16	0	0	0	0	0	0
7	2023-03-30	09:26:59	09:51:59	09:51:59:243	9	1	TNT_Object_CSp	fixation	0	5	1000	0	0	1	995	1	+	-8	0	0	0	0	0	0
7	2023-03-30	09:26:59	09:52:00	09:52:00:256	9	2	TNT_Object_CSp	Passive	0	5	0	0	0	0	1000	1	VIEW	-16	0	0	0	0	0	0
7	2023-03-30	09:26:59	09:52:05	09:52:05:273	9	3	TNT_Object_CSp	TNT_Object_CSp	0	500	0	0	0	0	5000	2	Object7.jpg	-16	0	0	0	0	0	0
7	2023-03-30	09:26:59	09:52:06	09:52:06:272	10	1	TNT_Object_CSm	fixation	0	5	500	0	0	1	495	1	+	-8	0	0	0	0	0	0
7	2023-03-30	09:26:59	09:52:07	09:52:07:290	10	2	TNT_Object_CSm	Passive	0	5	0	0	0	0	1000	1	VIEW	-16	0	0	0	0	0	0
7	2023-03-30	09:26:59	09:52:12	09:52:12:306	10	3	TNT_Object_CSm	TNT_Object_CSm	0	1000	0	0	0	0	5000	1	Object4.jpg	-16	0	0	0	0	0	0
7	2023-03-30	09:26:59	09:52:14	09:52:14:806	11	1	TNT_Think_CSm	fixation	0	5	1500	0	0	1	1495	1	+	-8	0	0	0	0	0	0
7	2023-03-30	09:26:59	09:52:15	09:52:15:823	11	2	TNT_Think_CSm	Think	0	5	0	0	0	0	1000	1	THINK	-16	0	0	0	0	0	0
7	2023-03-30	09:26:59	09:52:20	09:52:20:840	11	3	TNT_Think_CSm	TNT_Think_CSm	0	5	0	0	0	0	5000	5	Cue18.jpg	-16	0	0	0	0	0	0
7	2023-03-30	09:26:59	09:52:21	09:52:21:295	11	4	TNT_Think_CSm	Intrusion	0	500	3000	0	81	1	437	1	How <b>often</b> did you <b>think</b> about the <b>scene</b>?   <center><br><b>NEVER (1)    BRIEFLY (2)   OFTEN (3) </b>	-16	0	0	0	0	0	0
7	2023-03-30	09:26:59	09:52:24	09:52:24:844	12	1	TNT_NoThink_CSp	fixation	0	5	1000	0	0	1	995	1	+	-9	0	0	0	0	0	0
7	2023-03-30	09:26:59	09:52:25	09:52:25:857	12	2	TNT_NoThink_CSp	NoThink	0	5	0	0	0	0	1000	1	DON'T THINK	-16	0	0	0	0	0	0
7	2023-03-30	09:26:59	09:52:30	09:52:30:874	12	3	TNT_NoThink_CSp	TNT_NoThink_CSp	0	5	0	0	0	0	5000	6	Cue35.jpg	-16	0	0	0	0	0	0
7	2023-03-30	09:26:59	09:52:31	09:52:31:215	12	4	TNT_NoThink_CSp	Intrusion	0	1500	3000	0	80	1	323	1	How <b>often</b> did you <b>think</b> about the <b>scene</b>?   <center><br><b>NEVER (1)    BRIEFLY (2)   OFTEN (3) </b>	-16	0	0	0	0	0	0
7	2023-03-30	09:26:59	09:52:34	09:52:34:378	13	1	TNT_Think_CSm	fixation	0	5	500	0	0	1	495	1	+	-7	0	0	0	0	0	0
7	2023-03-30	09:26:59	09:52:35	09:52:35:391	13	2	TNT_Think_CSm	Think	0	5	0	0	0	0	1000	1	THINK	-16	0	0	0	0	0	0
7	2023-03-30	09:26:59	09:52:40	09:52:40:408	13	3	TNT_Think_CSm	TNT_Think_CSm	0	5	0	0	0	0	5000	4	Cue15.jpg	-16	0	0	0	0	0	0
7	2023-03-30	09:26:59	09:52:40	09:52:40:831	13	4	TNT_Think_CSm	Intrusion	0	1000	3000	0	81	1	405	1	How <b>often</b> did you <b>think</b> about the <b>scene</b>?   <center><br><b>NEVER (1)    BRIEFLY (2)   OFTEN (3) </b>	-16	0	0	0	0	0	0
7	2023-03-30	09:26:59	09:52:44	09:52:44:912	14	1	TNT_NoThink_CSp	fixation	0	5	1500	0	0	1	1495	1	+	-8	0	0	0	0	0	0
7	2023-03-30	09:26:59	09:52:45	09:52:45:926	14	2	TNT_NoThink_CSp	NoThink	0	5	0	0	0	0	1000	1	DON'T THINK	-16	0	0	0	0	0	0
7	2023-03-30	09:26:59	09:52:50	09:52:50:942	14	3	TNT_NoThink_CSp	TNT_NoThink_CSp	0	5	0	0	0	0	5000	3	Cue8.jpg	-16	0	0	0	0	0	0
7	2023-03-30	09:26:59	09:52:51	09:52:51:343	14	4	TNT_NoThink_CSp	Intrusion	0	1500	3000	0	79	1	383	1	How <b>often</b> did you <b>think</b> about the <b>scene</b>?   <center><br><b>NEVER (1)    BRIEFLY (2)   OFTEN (3) </b>	-16	0	0	0	0	0	0
7	2023-03-30	09:26:59	09:52:54	09:52:54:446	15	1	TNT_Object_CSm	fixation	0	5	500	0	0	1	495	1	+	-9	0	0	0	0	0	0
7	2023-03-30	09:26:59	09:52:55	09:52:55:459	15	2	TNT_Object_CSm	Passive	0	5	0	0	0	0	1000	1	VIEW	-16	0	0	0	0	0	0
7	2023-03-30	09:26:59	09:53:00	09:53:00:476	15	3	TNT_Object_CSm	TNT_Object_CSm	0	500	0	0	0	0	5000	2	Object5.jpg	-16	0	0	0	0	0	0
7	2023-03-30	09:26:59	09:53:01	09:53:01:975	16	1	TNT_NoThink_CSp	fixation	0	5	1000	0	0	1	995	1	+	-8	0	0	0	0	0	0
7	2023-03-30	09:26:59	09:53:02	09:53:02:993	16	2	TNT_NoThink_CSp	NoThink	0	5	0	0	0	0	1000	1	DON'T THINK	-16	0	0	0	0	0	0
7	2023-03-30	09:26:59	09:53:07	09:53:07:010	16	3	TNT_NoThink_CSp	TNT_NoThink_CSp	0	5	0	0	0	0	5000	2	Cue6.jpg	-16	0	0	0	0	0	0
7	2023-03-30	09:26:59	09:53:08	09:53:08:319	16	4	TNT_NoThink_CSp	Intrusion	0	500	3000	0	79	1	291	1	How <b>often</b> did you <b>think</b> about the <b>scene</b>?   <center><br><b>NEVER (1)    BRIEFLY (2)   OFTEN (3) </b>	-16	0	0	0	0	0	0
7	2023-03-30	09:26:59	09:53:11	09:53:11:514	17	1	TNT_Think_CSm	fixation	0	5	500	0	0	1	495	1	+	-8	0	0	0	0	0	0
7	2023-03-30	09:26:59	09:53:12	09:53:12:527	17	2	TNT_Think_CSm	Think	0	5	0	0	0	0	1000	1	THINK	-16	0	0	0	0	0	0
7	2023-03-30	09:26:59	09:53:17	09:53:17:544	17	3	TNT_Think_CSm	TNT_Think_CSm	0	5	0	0	0	0	5000	2	Cue24.jpg	-16	0	0	0	0	0	0
7	2023-03-30	09:26:59	09:53:17	09:53:17:871	17	4	TNT_Think_CSm	Intrusion	0	1000	3000	0	81	1	310	1	How <b>often</b> did you <b>think</b> about the <b>scene</b>?   <center><br><b>NEVER (1)    BRIEFLY (2)   OFTEN (3) </b>	-16	0	0	0	0	0	0
7	2023-03-30	09:26:59	09:53:21	09:53:21:548	18	1	TNT_Object_CSp	fixation	0	5	1000	0	0	1	995	1	+	-16	0	0	0	0	0	0
7	2023-03-30	09:26:59	09:53:22	09:53:22:561	18	2	TNT_Object_CSp	Passive	0	5	0	0	0	0	1000	1	VIEW	-16	0	0	0	0	0	0
7	2023-03-30	09:26:59	09:53:27	09:53:27:578	18	3	TNT_Object_CSp	TNT_Object_CSp	0	1000	0	0	0	0	5000	4	Object2.jpg	-16	0	0	0	0	0	0
7	2023-03-30	09:26:59	09:53:29	09:53:29:077	19	1	TNT_Think_CSm	fixation	0	5	1500	0	0	1	1495	1	+	-2	0	0	0	0	0	0
7	2023-03-30	09:26:59	09:53:30	09:53:30:095	19	2	TNT_Think_CSm	Think	0	5	0	0	0	0	1000	1	THINK	-16	0	0	0	0	0	0
7	2023-03-30	09:26:59	09:53:35	09:53:35:111	19	3	TNT_Think_CSm	TNT_Think_CSm	0	5	0	0	0	0	5000	1	Cue21.jpg	-16	0	0	0	0	0	0
7	2023-03-30	09:26:59	09:53:36	09:53:36:479	19	4	TNT_Think_CSm	Intrusion	0	500	3000	0	81	1	350	1	How <b>often</b> did you <b>think</b> about the <b>scene</b>?   <center><br><b>NEVER (1)    BRIEFLY (2)   OFTEN (3) </b>	-16	0	0	0	0	0	0
7	2023-03-30	09:26:59	09:53:39	09:53:39:616	20	1	TNT_NoThink_CSm	fixation	0	5	500	0	0	1	495	1	+	-16	0	0	0	0	0	0
7	2023-03-30	09:26:59	09:53:40	09:53:40:629	20	2	TNT_NoThink_CSm	NoThink	0	5	0	0	0	0	1000	1	DON'T THINK	-16	0	0	0	0	0	0
7	2023-03-30	09:26:59	09:53:45	09:53:45:645	20	3	TNT_NoThink_CSm	TNT_NoThink_CSm	0	5	0	0	0	0	5000	1	Cue34.jpg	-16	0	0	0	0	0	0
7	2023-03-30	09:26:59	09:53:45	09:53:45:015	20	4	TNT_NoThink_CSm	Intrusion	0	1000	3000	0	80	1	352	1	How <b>often</b> did you <b>think</b> about the <b>scene</b>?   <center><br><b>NEVER (1)    BRIEFLY (2)   OFTEN (3) </b>	-16	0	0	0	0	0	0
7	2023-03-30	09:26:59	09:53:49	09:53:49:649	21	1	TNT_Think_CSp	fixation	0	5	1000	0	0	1	995	1	+	-8	0	0	0	0	0	0
7	2023-03-30	09:26:59	09:53:50	09:53:50:662	21	2	TNT_Think_CSp	Think	0	5	0	0	0	0	1000	1	THINK	-16	0	0	0	0	0	0
7	2023-03-30	09:26:59	09:53:55	09:53:55:679	21	3	TNT_Think_CSp	TNT_Think_CSp	0	5	0	0	0	0	5000	2	Cue4.jpg	-16	0	0	0	0	0	0
7	2023-03-30	09:26:59	09:53:55	09:53:55:015	21	4	TNT_Think_CSp	Intrusion	0	1500	3000	0	81	1	318	1	How <b>often</b> did you <b>think</b> about the <b>scene</b>?   <center><br><b>NEVER (1)    BRIEFLY (2)   OFTEN (3) </b>	-16	0	0	0	0	0	0
7	2023-03-30	09:26:59	09:54:00	09:54:00:183	22	1	TNT_Think_CSp	fixation	0	5	1500	0	0	1	1495	1	+	-16	0	0	0	0	0	0
7	2023-03-30	09:26:59	09:54:01	09:54:01:196	22	2	TNT_Think_CSp	Think	0	5	0	0	0	0	1000	1	THINK	-16	0	0	0	0	0	0
7	2023-03-30	09:26:59	09:54:06	09:54:06:213	22	3	TNT_Think_CSp	TNT_Think_CSp	0	5	0	0	0	0	5000	3	Cue32.jpg	-16	0	0	0	0	0	0
7	2023-03-30	09:26:59	09:54:06	09:54:06:527	22	4	TNT_Think_CSp	Intrusion	0	1000	3000	0	81	1	296	1	How <b>often</b> did you <b>think</b> about the <b>scene</b>?   <center><br><b>NEVER (1)    BRIEFLY (2)   OFTEN (3) </b>	-16	0	0	0	0	0	0
7	2023-03-30	09:26:59	09:54:09	09:54:09:717	23	1	TNT_NoThink_CSm	fixation	0	5	500	0	0	1	495	1	+	-8	0	0	0	0	0	0
7	2023-03-30	09:26:59	09:54:10	09:54:10:731	23	2	TNT_NoThink_CSm	NoThink	0	5	0	0	0	0	1000	1	DON'T THINK	-16	0	0	0	0	0	0
7	2023-03-30	09:26:59	09:54:15	09:54:15:747	23	3	TNT_NoThink_CSm	TNT_NoThink_CSm	0	5	0	0	0	0	5000	5	Cue17.jpg	-16	0	0	0	0	0	0
7	2023-03-30	09:26:59	09:54:15	09:54:15:079	23	4	TNT_NoThink_CSm	Intrusion	0	1500	3000	0	80	1	314	1	How <b>often</b> did you <b>think</b> about the <b>scene</b>?   <center><br><b>NEVER (1)    BRIEFLY (2)   OFTEN (3) </b>	-16	0	0	0	0	0	0
7	2023-03-30	09:26:59	09:54:19	09:54:19:751	24	1	TNT_Think_CSp	fixation	0	5	1000	0	0	1	995	1	+	-9	0	0	0	0	0	0
7	2023-03-30	09:26:59	09:54:20	09:54:20:764	24	2	TNT_Think_CSp	Think	0	5	0	0	0	0	1000	1	THINK	-16	0	0	0	0	0	0
7	2023-03-30	09:26:59	09:54:25	09:54:25:781	24	3	TNT_Think_CSp	TNT_Think_CSp	0	5	0	0	0	0	5000	1	Cue20.jpg	-16	0	0	0	0	0	0
7	2023-03-30	09:26:59	09:54:25	09:54:25:095	24	4	TNT_Think_CSp	Intrusion	0	500	3000	0	81	1	296	1	How <b>often</b> did you <b>think</b> about the <b>scene</b>?   <center><br><b>NEVER (1)    BRIEFLY (2)   OFTEN (3) </b>	-16	0	0	0	0	0	0
7	2023-03-30	09:26:59	09:54:30	09:54:30:285	25	1	TNT_NoThink_CSp	fixation	0	5	1500	0	0	1	1495	1	+	-5	0	0	0	0	0	0
7	2023-03-30	09:26:59	09:54:31	09:54:31:298	25	2	TNT_NoThink_CSp	NoThink	0	5	0	0	0	0	1000	1	DON'T THINK	-16	0	0	0	0	0	0
7	2023-03-30	09:26:59	09:54:36	09:54:36:315	25	3	TNT_NoThink_CSp	TNT_NoThink_CSp	0	5	0	0	0	0	5000	4	Cue28.jpg	-16	0	0	0	0	0	0
7	2023-03-30	09:26:59	09:54:36	09:54:36:638	25	4	TNT_NoThink_CSp	Intrusion	0	500	3000	0	79	1	306	1	How <b>often</b> did you <b>think</b> about the <b>scene</b>?   <center><br><b>NEVER (1)    BRIEFLY (2)   OFTEN (3) </b>	-16	0	0	0	0	0	0
7	2023-03-30	09:26:59	09:54:40	09:54:40:319	26	1	TNT_Object_CSm	fixation	0	5	1000	0	0	1	995	1	+	-9	0	0	0	0	0	0
7	2023-03-30	09:26:59	09:54:41	09:54:41:332	26	2	TNT_Object_CSm	Passive	0	5	0	0	0	0	1000	1	VIEW	-16	0	0	0	0	0	0
7	2023-03-30	09:26:59	09:54:46	09:54:46:349	26	3	TNT_Object_CSm	TNT_Object_CSm	0	1500	0	0	0	0	5000	3	Object8.jpg	-16	0	0	0	0	0	0
7	2023-03-30	09:26:59	09:54:48	09:54:48:348	27	1	TNT_Think_CSp	fixation	0	5	500	0	0	1	495	1	+	-9	0	0	0	0	0	0
7	2023-03-30	09:26:59	09:54:49	09:54:49:366	27	2	TNT_Think_CSp	Think	0	5	0	0	0	0	1000	1	THINK	-16	0	0	0	0	0	0
7	2023-03-30	09:26:59	09:54:54	09:54:54:383	27	3	TNT_Think_CSp	TNT_Think_CSp	0	5	0	0	0	0	5000	4	Cue1.jpg	-16	0	0	0	0	0	0
7	2023-03-30	09:26:59	09:54:54	09:54:54:686	27	4	TNT_Think_CSp	Intrusion	0	1500	3000	0	81	1	286	1	How <b>often</b> did you <b>think</b> about the <b>scene</b>?   <center><br><b>NEVER (1)    BRIEFLY (2)   OFTEN (3) </b>	-16	0	0	0	0	0	0
7	2023-03-30	09:26:59	09:54:58	09:54:58:887	28	1	TNT_Think_CSm	fixation	0	5	1500	0	0	1	1495	1	+	-9	0	0	0	0	0	0
7	2023-03-30	09:26:59	09:54:59	09:54:59:900	28	2	TNT_Think_CSm	Think	0	5	0	0	0	0	1000	1	THINK	-16	0	0	0	0	0	0
7	2023-03-30	09:26:59	09:55:04	09:55:04:917	28	3	TNT_Think_CSm	TNT_Think_CSm	0	5	0	0	0	0	5000	6	Cue14.jpg	-16	0	0	0	0	0	0
7	2023-03-30	09:26:59	09:55:05	09:55:05:231	28	4	TNT_Think_CSm	Intrusion	0	1000	3000	0	81	1	297	1	How <b>often</b> did you <b>think</b> about the <b>scene</b>?   <center><br><b>NEVER (1)    BRIEFLY (2)   OFTEN (3) </b>	-16	0	0	0	0	0	0
7	2023-03-30	09:26:59	09:55:08	09:55:08:921	29	1	TNT_Object_CSp	fixation	0	5	1000	0	0	1	995	1	+	-7	0	0	0	0	0	0
7	2023-03-30	09:26:59	09:55:09	09:55:09:934	29	2	TNT_Object_CSp	Passive	0	5	0	0	0	0	1000	1	VIEW	-16	0	0	0	0	0	0
7	2023-03-30	09:26:59	09:55:14	09:55:14:951	29	3	TNT_Object_CSp	TNT_Object_CSp	0	1500	0	0	0	0	5000	1	Object3.jpg	-16	0	0	0	0	0	0
7	2023-03-30	09:26:59	09:55:16	09:55:16:950	30	1	TNT_NoThink_CSp	fixation	0	5	500	0	0	1	495	1	+	-8	0	0	0	0	0	0
7	2023-03-30	09:26:59	09:55:17	09:55:17:968	30	2	TNT_NoThink_CSp	NoThink	0	5	0	0	0	0	1000	1	DON'T THINK	-16	0	0	0	0	0	0
7	2023-03-30	09:26:59	09:55:22	09:55:22:985	30	3	TNT_NoThink_CSp	TNT_NoThink_CSp	0	5	0	0	0	0	5000	5	Cue16.jpg	-16	0	0	0	0	0	0
7	2023-03-30	09:26:59	09:55:23	09:55:23:279	30	4	TNT_NoThink_CSp	Intrusion	0	1500	3000	0	80	1	277	1	How <b>often</b> did you <b>think</b> about the <b>scene</b>?   <center><br><b>NEVER (1)    BRIEFLY (2)   OFTEN (3) </b>	-16	0	0	0	0	0	0
7	2023-03-30	09:26:59	09:55:27	09:55:27:489	31	1	TNT_Object_CSp	fixation	0	5	1500	0	0	1	1495	1	+	-16	0	0	0	0	0	0
7	2023-03-30	09:26:59	09:55:28	09:55:28:501	31	2	TNT_Object_CSp	Passive	0	5	0	0	0	0	1000	1	VIEW	-16	0	0	0	0	0	0
7	2023-03-30	09:26:59	09:55:33	09:55:33:518	31	3	TNT_Object_CSp	TNT_Object_CSp	0	500	0	0	0	0	5000	3	Object6.jpg	-16	0	0	0	0	0	0
7	2023-03-30	09:26:59	09:55:34	09:55:34:518	32	1	TNT_NoThink_CSm	fixation	0	5	500	0	0	1	495	1	+	-9	0	0	0	0	0	0
7	2023-03-30	09:26:59	09:55:35	09:55:35:536	32	2	TNT_NoThink_CSm	NoThink	0	5	0	0	0	0	1000	1	DON'T THINK	-16	0	0	0	0	0	0
7	2023-03-30	09:26:59	09:55:40	09:55:40:552	32	3	TNT_NoThink_CSm	TNT_NoThink_CSm	0	5	0	0	0	0	5000	6	Cue10.jpg	-16	0	0	0	0	0	0
7	2023-03-30	09:26:59	09:55:40	09:55:40:879	32	4	TNT_NoThink_CSm	Intrusion	0	1000	3000	0	79	1	309	1	How <b>often</b> did you <b>think</b> about the <b>scene</b>?   <center><br><b>NEVER (1)    BRIEFLY (2)   OFTEN (3) </b>	-16	0	0	0	0	0	0
7	2023-03-30	09:26:59	09:55:44	09:55:44:056	33	1	TNT_NoThink_CSm	fixation	0	5	1500	0	0	1	1495	1	+	-9	0	0	0	0	0	0
7	2023-03-30	09:26:59	09:55:45	09:55:45:069	33	2	TNT_NoThink_CSm	NoThink	0	5	0	0	0	0	1000	1	DON'T THINK	-16	0	0	0	0	0	0
7	2023-03-30	09:26:59	09:55:50	09:55:50:086	33	3	TNT_NoThink_CSm	TNT_NoThink_CSm	0	5	0	0	0	0	5000	2	Cue22.jpg	-16	0	0	0	0	0	0
7	2023-03-30	09:26:59	09:55:51	09:55:51:503	33	4	TNT_NoThink_CSm	Intrusion	0	500	3000	0	79	1	399	1	How <b>often</b> did you <b>think</b> about the <b>scene</b>?   <center><br><b>NEVER (1)    BRIEFLY (2)   OFTEN (3) </b>	-16	0	0	0	0	0	0
7	2023-03-30	09:26:59	09:55:54	09:55:54:090	34	1	TNT_Object_CSp	fixation	0	5	1000	0	0	1	995	1	+	-9	0	0	0	0	0	0
7	2023-03-30	09:26:59	09:55:55	09:55:55:103	34	2	TNT_Object_CSp	Passive	0	5	0	0	0	0	1000	1	VIEW	-16	0	0	0	0	0	0
7	2023-03-30	09:26:59	09:56:00	09:56:00:120	34	3	TNT_Object_CSp	TNT_Object_CSp	0	1000	0	0	0	0	5000	4	Object2.jpg	-16	0	0	0	0	0	0
7	2023-03-30	09:26:59	09:56:02	09:56:02:119	35	1	TNT_NoThink_CSm	fixation	0	5	1000	0	0	1	995	1	+	-9	0	0	0	0	0	0
7	2023-03-30	09:26:59	09:56:03	09:56:03:137	35	2	TNT_NoThink_CSm	NoThink	0	5	0	0	0	0	1000	1	DON'T THINK	-16	0	0	0	0	0	0
7	2023-03-30	09:26:59	09:56:08	09:56:08:154	35	3	TNT_NoThink_CSm	TNT_NoThink_CSm	0	5	0	0	0	0	5000	4	Cue25.jpg	-16	0	0	0	0	0	0
7	2023-03-30	09:26:59	09:56:09	09:56:09:503	35	4	TNT_NoThink_CSm	Intrusion	0	1000	3000	0	79	1	331	1	How <b>often</b> did you <b>think</b> about the <b>scene</b>?   <center><br><b>NEVER (1)    BRIEFLY (2)   OFTEN (3) </b>	-16	0	0	0	0	0	0
7	2023-03-30	09:26:59	09:56:13	09:56:13:658	36	1	TNT_Think_CSm	fixation	0	5	1500	0	0	1	1495	1	+	-16	0	0	0	0	0	0
7	2023-03-30	09:26:59	09:56:14	09:56:14:671	36	2	TNT_Think_CSm	Think	0	5	0	0	0	0	1000	1	THINK	-16	0	0	0	0	0	0
7	2023-03-30	09:26:59	09:56:19	09:56:19:688	36	3	TNT_Think_CSm	TNT_Think_CSm	0	5	0	0	0	0	5000	3	Cue5.jpg	-16	0	0	0	0	0	0
7	2023-03-30	09:26:59	09:56:21	09:56:21:183	36	4	TNT_Think_CSm	Intrusion	0	1500	3000	0	81	1	1478	1	How <b>often</b> did you <b>think</b> about the <b>scene</b>?   <center><br><b>NEVER (1)    BRIEFLY (2)   OFTEN (3) </b>	-16	0	0	0	0	0	0
7	2023-03-30	09:26:59	09:56:23	09:56:23:191	37	1	TNT_NoThink_CSp	fixation	0	5	500	0	0	1	495	1	+	-4	0	0	0	0	0	0
7	2023-03-30	09:26:59	09:56:24	09:56:24:205	37	2	TNT_NoThink_CSp	NoThink	0	5	0	0	0	0	1000	1	DON'T THINK	-16	0	0	0	0	0	0
7	2023-03-30	09:26:59	09:56:29	09:56:29:222	37	3	TNT_NoThink_CSp	TNT_NoThink_CSp	0	5	0	0	0	0	5000	6	Cue35.jpg	-16	0	0	0	0	0	0
7	2023-03-30	09:26:59	09:56:29	09:56:29:535	37	4	TNT_NoThink_CSp	Intrusion	0	500	3000	0	79	1	295	1	How <b>often</b> did you <b>think</b> about the <b>scene</b>?   <center><br><b>NEVER (1)    BRIEFLY (2)   OFTEN (3) </b>	-16	0	0	0	0	0	0
7	2023-03-30	09:26:59	09:56:32	09:56:32:726	38	1	TNT_Think_CSm	fixation	0	5	500	0	0	1	495	1	+	-8	0	0	0	0	0	0
7	2023-03-30	09:26:59	09:56:33	09:56:33:739	38	2	TNT_Think_CSm	Think	0	5	0	0	0	0	1000	1	THINK	-16	0	0	0	0	0	0
7	2023-03-30	09:26:59	09:56:38	09:56:38:756	38	3	TNT_Think_CSm	TNT_Think_CSm	0	5	0	0	0	0	5000	5	Cue18.jpg	-16	0	0	0	0	0	0
7	2023-03-30	09:26:59	09:56:39	09:56:39:935	38	4	TNT_Think_CSm	Intrusion	0	1000	3000	0	81	1	1162	1	How <b>often</b> did you <b>think</b> about the <b>scene</b>?   <center><br><b>NEVER (1)    BRIEFLY (2)   OFTEN (3) </b>	-16	0	0	0	0	0	0
7	2023-03-30	09:26:59	09:56:42	09:56:42:760	39	1	TNT_Object_CSp	fixation	0	5	1000	0	0	1	995	1	+	-16	0	0	0	0	0	0
7	2023-03-30	09:26:59	09:56:43	09:56:43:772	39	2	TNT_Object_CSp	Passive	0	5	0	0	0	0	1000	1	VIEW	-16	0	0	0	0	0	0
7	2023-03-30	09:26:59	09:56:48	09:56:48:790	39	3	TNT_Object_CSp	TNT_Object_CSp	0	1500	0	0	0	0	5000	1	Object3.jpg	-16	0	0	0	0	0	0
7	2023-03-30	09:26:59	09:56:51	09:56:51:789	40	1	TNT_NoThink_CSm	fixation	0	5	1500	0	0	1	1495	1	+	-9	0	0	0	0	0	0
7	2023-03-30	09:26:59	09:56:52	09:56:52:807	40	2	TNT_NoThink_CSm	NoThink	0	5	0	0	0	0	1000	1	DON'T THINK	-16	0	0	0	0	0	0
7	2023-03-30	09:26:59	09:56:57	09:56:57:823	40	3	TNT_NoThink_CSm	TNT_NoThink_CSm	0	5	0	0	0	0	5000	1	Cue34.jpg	-16	0	0	0	0	0	0
7	2023-03-30	09:26:59	09:56:58	09:56:58:607	40	4	TNT_NoThink_CSm	Intrusion	0	500	3000	0	79	1	766	1	How <b>often</b> did you <b>think</b> about the <b>scene</b>?   <center><br><b>NEVER (1)    BRIEFLY (2)   OFTEN (3) </b>	-16	0	0	0	0	0	0
7	2023-03-30	09:26:59	09:57:01	09:57:01:827	41	1	TNT_Think_CSm	fixation	0	5	1000	0	0	1	995	1	+	-8	0	0	0	0	0	0
7	2023-03-30	09:26:59	09:57:02	09:57:02:840	41	2	TNT_Think_CSm	Think	0	5	0	0	0	0	1000	1	THINK	-16	0	0	0	0	0	0
7	2023-03-30	09:26:59	09:57:07	09:57:07:858	41	3	TNT_Think_CSm	TNT_Think_CSm	0	5	0	0	0	0	5000	1	Cue21.jpg	-16	0	0	0	0	0	0
7	2023-03-30	09:26:59	09:57:08	09:57:08:302	41	4	TNT_Think_CSm	Intrusion	0	1500	3000	0	81	1	428	1	How <b>often</b> did you <b>think</b> about the <b>scene</b>?   <center><br><b>NEVER (1)    BRIEFLY (2)   OFTEN (3) </b>	-16	0	0	0	0	0	0
7	2023-03-30	09:26:59	09:57:11	09:57:11:362	42	1	TNT_Think_CSm	fixation	0	5	500	0	0	1	495	1	+	-9	0	0	0	0	0	0
7	2023-03-30	09:26:59	09:57:12	09:57:12:374	42	2	TNT_Think_CSm	Think	0	5	0	0	0	0	1000	1	THINK	-16	0	0	0	0	0	0
7	2023-03-30	09:26:59	09:57:17	09:57:17:391	42	3	TNT_Think_CSm	TNT_Think_CSm	0	5	0	0	0	0	5000	2	Cue24.jpg	-16	0	0	0	0	0	0
7	2023-03-30	09:26:59	09:57:17	09:57:17:999	42	4	TNT_Think_CSm	Intrusion	0	1000	3000	0	81	1	590	1	How <b>often</b> did you <b>think</b> about the <b>scene</b>?   <center><br><b>NEVER (1)    BRIEFLY (2)   OFTEN (3) </b>	-16	0	0	0	0	0	0
7	2023-03-30	09:26:59	09:57:21	09:57:21:895	43	1	TNT_Think_CSp	fixation	0	5	1500	0	0	1	1495	1	+	-9	0	0	0	0	0	0
7	2023-03-30	09:26:59	09:57:22	09:57:22:908	43	2	TNT_Think_CSp	Think	0	5	0	0	0	0	1000	1	THINK	-16	0	0	0	0	0	0
7	2023-03-30	09:26:59	09:57:27	09:57:27:925	43	3	TNT_Think_CSp	TNT_Think_CSp	0	5	0	0	0	0	5000	1	Cue20.jpg	-16	0	0	0	0	0	0
7	2023-03-30	09:26:59	09:57:28	09:57:28:638	43	4	TNT_Think_CSp	Intrusion	0	500	3000	0	81	1	696	1	How <b>often</b> did you <b>think</b> about the <b>scene</b>?   <center><br><b>NEVER (1)    BRIEFLY (2)   OFTEN (3) </b>	-16	0	0	0	0	0	0
7	2023-03-30	09:26:59	09:57:32	09:57:32:429	44	1	TNT_NoThink_CSp	fixation	0	5	1500	0	0	1	1495	1	+	-9	0	0	0	0	0	0
7	2023-03-30	09:26:59	09:57:33	09:57:33:443	44	2	TNT_NoThink_CSp	NoThink	0	5	0	0	0	0	1000	1	DON'T THINK	-16	0	0	0	0	0	0
7	2023-03-30	09:26:59	09:57:38	09:57:38:459	44	3	TNT_NoThink_CSp	TNT_NoThink_CSp	0	5	0	0	0	0	5000	3	Cue8.jpg	-16	0	0	0	0	0	0
7	2023-03-30	09:26:59	09:57:38	09:57:38:814	44	4	TNT_NoThink_CSp	Intrusion	0	1500	3000	0	80	1	338	1	How <b>often</b> did you <b>think</b> about the <b>scene</b>?   <center><br><b>NEVER (1)    BRIEFLY (2)   OFTEN (3) </b>	-16	0	0	0	0	0	0
7	2023-03-30	09:26:59	09:57:41	09:57:41:963	45	1	TNT_NoThink_CSp	fixation	0	5	500	0	0	1	495	1	+	-9	0	0	0	0	0	0
7	2023-03-30	09:26:59	09:57:42	09:57:42:977	45	2	TNT_NoThink_CSp	NoThink	0	5	0	0	0	0	1000	1	DON'T THINK	-16	0	0	0	0	0	0
7	2023-03-30	09:26:59	09:57:47	09:57:47:993	45	3	TNT_NoThink_CSp	TNT_NoThink_CSp	0	5	0	0	0	0	5000	5	Cue16.jpg	-16	0	0	0	0	0	0
7	2023-03-30	09:26:59	09:57:48	09:57:48:366	45	4	TNT_NoThink_CSp	Intrusion	0	1500	3000	0	79	1	356	1	How <b>often</b> did you <b>think</b> about the <b>scene</b>?   <center><br><b>NEVER (1)    BRIEFLY (2)   OFTEN (3) </b>	-16	0	0	0	0	0	0
7	2023-03-30	09:26:59	09:57:51	09:57:51:997	46	1	TNT_Object_CSm	fixation	0	5	1000	0	0	1	995	1	+	-9	0	0	0	0	0	0
7	2023-03-30	09:26:59	09:57:52	09:57:52:010	46	2	TNT_Object_CSm	Passive	0	5	0	0	0	0	1000	1	VIEW	-16	0	0	0	0	0	0
7	2023-03-30	09:26:59	09:57:57	09:57:57:027	46	3	TNT_Object_CSm	TNT_Object_CSm	0	500	0	0	0	0	5000	2	Object5.jpg	-16	0	0	0	0	0	0
7	2023-03-30	09:26:59	09:57:59	09:57:59:526	47	1	TNT_Think_CSp	fixation	0	5	1000	0	0	1	995	1	+	-8	0	0	0	0	0	0
7	2023-03-30	09:26:59	09:58:00	09:58:00:544	47	2	TNT_Think_CSp	Think	0	5	0	0	0	0	1000	1	THINK	-16	0	0	0	0	0	0
7	2023-03-30	09:26:59	09:58:05	09:58:05:561	47	3	TNT_Think_CSp	TNT_Think_CSp	0	5	0	0	0	0	5000	4	Cue1.jpg	-16	0	0	0	0	0	0
7	2023-03-30	09:26:59	09:58:06	09:58:06:302	47	4	TNT_Think_CSp	Intrusion	0	500	3000	0	81	1	724	1	How <b>often</b> did you <b>think</b> about the <b>scene</b>?   <center><br><b>NEVER (1)    BRIEFLY (2)   OFTEN (3) </b>	-16	0	0	0	0	0	0
7	2023-03-30	09:26:59	09:58:08	09:58:08:065	48	1	TNT_Object_CSm	fixation	0	5	500	0	0	1	495	1	+	-8	0	0	0	0	0	0
7	2023-03-30	09:26:59	09:58:09	09:58:09:077	48	2	TNT_Object_CSm	Passive	0	5	0	0	0	0	1000	1	VIEW	-16	0	0	0	0	0	0
7	2023-03-30	09:26:59	09:58:14	09:58:14:094	48	3	TNT_Object_CSm	TNT_Object_CSm	0	1000	0	0	0	0	5000	1	Object4.jpg	-16	0	0	0	0	0	0
7	2023-03-30	09:26:59	09:58:17	09:58:17:594	49	1	TNT_Object_CSp	fixation	0	5	1500	0	0	1	1495	1	+	-9	0	0	0	0	0	0
7	2023-03-30	09:26:59	09:58:18	09:58:18:612	49	2	TNT_Object_CSp	Passive	0	5	0	0	0	0	1000	1	VIEW	-16	0	0	0	0	0	0
7	2023-03-30	09:26:59	09:58:23	09:58:23:629	49	3	TNT_Object_CSp	TNT_Object_CSp	0	1500	0	0	0	0	5000	2	Object7.jpg	-16	0	0	0	0	0	0
7	2023-03-30	09:26:59	09:58:25	09:58:25:628	50	1	TNT_Think_CSm	fixation	0	5	500	0	0	1	495	1	+	-8	0	0	0	0	0	0
7	2023-03-30	09:26:59	09:58:26	09:58:26:645	50	2	TNT_Think_CSm	Think	0	5	0	0	0	0	1000	1	THINK	-16	0	0	0	0	0	0
7	2023-03-30	09:26:59	09:58:31	09:58:31:662	50	3	TNT_Think_CSm	TNT_Think_CSm	0	5	0	0	0	0	5000	4	Cue15.jpg	-16	0	0	0	0	0	0
7	2023-03-30	09:26:59	09:58:33	09:58:33:374	50	4	TNT_Think_CSm	Intrusion	0	1000	3000	0	81	1	1695	1	How <b>often</b> did you <b>think</b> about the <b>scene</b>?   <center><br><b>NEVER (1)    BRIEFLY (2)   OFTEN (3) </b>	-16	0	0	0	0	0	0
7	2023-03-30	09:26:59	09:58:35	09:58:35:166	51	1	TNT_Think_CSp	fixation	0	5	1500	0	0	1	1495	1	+	-8	0	0	0	0	0	0
7	2023-03-30	09:26:59	09:58:37	09:58:37:179	51	2	TNT_Think_CSp	Think	0	5	0	0	0	0	1000	1	THINK	-16	0	0	0	0	0	0
7	2023-03-30	09:26:59	09:58:42	09:58:42:196	51	3	TNT_Think_CSp	TNT_Think_CSp	0	5	0	0	0	0	5000	6	Cue2.jpg	-16	0	0	0	0	0	0
7	2023-03-30	09:26:59	09:58:43	09:58:43:662	51	4	TNT_Think_CSp	Intrusion	0	1500	3000	0	81	1	1449	1	How <b>often</b> did you <b>think</b> about the <b>scene</b>?   <center><br><b>NEVER (1)    BRIEFLY (2)   OFTEN (3) </b>	-16	0	0	0	0	0	0
7	2023-03-30	09:26:59	09:58:46	09:58:46:200	52	1	TNT_NoThink_CSm	fixation	0	5	1000	0	0	1	995	1	+	-8	0	0	0	0	0	0
7	2023-03-30	09:26:59	09:58:47	09:58:47:213	52	2	TNT_NoThink_CSm	NoThink	0	5	0	0	0	0	1000	1	DON'T THINK	-16	0	0	0	0	0	0
7	2023-03-30	09:26:59	09:58:52	09:58:52:230	52	3	TNT_NoThink_CSm	TNT_NoThink_CSm	0	5	0	0	0	0	5000	3	Cue26.jpg	-16	0	0	0	0	0	0
7	2023-03-30	09:26:59	09:58:52	09:58:52:526	52	4	TNT_NoThink_CSm	Intrusion	0	500	3000	0	79	1	279	1	How <b>often</b> did you <b>think</b> about the <b>scene</b>?   <center><br><b>NEVER (1)    BRIEFLY (2)   OFTEN (3) </b>	-16	0	0	0	0	0	0
7	2023-03-30	09:26:59	09:58:55	09:58:55:734	53	1	TNT_NoThink_CSm	fixation	0	5	500	0	0	1	495	1	+	-16	0	0	0	0	0	0
7	2023-03-30	09:26:59	09:58:56	09:58:56:748	53	2	TNT_NoThink_CSm	NoThink	0	5	0	0	0	0	1000	1	DON'T THINK	-16	0	0	0	0	0	0
7	2023-03-30	09:26:59	09:59:01	09:59:01:764	53	3	TNT_NoThink_CSm	TNT_NoThink_CSm	0	5	0	0	0	0	5000	2	Cue22.jpg	-16	0	0	0	0	0	0
7	2023-03-30	09:26:59	09:59:01	09:59:01:062	53	4	TNT_NoThink_CSm	Intrusion	0	1000	3000	0	79	1	281	1	How <b>often</b> did you <b>think</b> about the <b>scene</b>?   <center><br><b>NEVER (1)    BRIEFLY (2)   OFTEN (3) </b>	-16	0	0	0	0	0	0
7	2023-03-30	09:26:59	09:59:05	09:59:05:768	54	1	TNT_NoThink_CSp	fixation	0	5	1000	0	0	1	995	1	+	-9	0	0	0	0	0	0
7	2023-03-30	09:26:59	09:59:06	09:59:06:781	54	2	TNT_NoThink_CSp	NoThink	0	5	0	0	0	0	1000	1	DON'T THINK	-16	0	0	0	0	0	0
7	2023-03-30	09:26:59	09:59:11	09:59:11:798	54	3	TNT_NoThink_CSp	TNT_NoThink_CSp	0	5	0	0	0	0	5000	2	Cue6.jpg	-16	0	0	0	0	0	0
7	2023-03-30	09:26:59	09:59:11	09:59:11:126	54	4	TNT_NoThink_CSp	Intrusion	0	1500	3000	0	79	1	311	1	How <b>often</b> did you <b>think</b> about the <b>scene</b>?   <center><br><b>NEVER (1)    BRIEFLY (2)   OFTEN (3) </b>	-16	0	0	0	0	0	0
7	2023-03-30	09:26:59	09:59:16	09:59:16:302	55	1	TNT_Object_CSp	fixation	0	5	1500	0	0	1	1495	1	+	-8	0	0	0	0	0	0
7	2023-03-30	09:26:59	09:59:17	09:59:17:315	55	2	TNT_Object_CSp	Passive	0	5	0	0	0	0	1000	1	VIEW	-16	0	0	0	0	0	0
7	2023-03-30	09:26:59	09:59:22	09:59:22:332	55	3	TNT_Object_CSp	TNT_Object_CSp	0	500	0	0	0	0	5000	3	Object6.jpg	-16	0	0	0	0	0	0
7	2023-03-30	09:26:59	09:59:23	09:59:23:330	56	1	TNT_NoThink_CSp	fixation	0	5	500	0	0	1	495	1	+	-8	0	0	0	0	0	0
7	2023-03-30	09:26:59	09:59:24	09:59:24:349	56	2	TNT_NoThink_CSp	NoThink	0	5	0	0	0	0	1000	1	DON'T THINK	-16	0	0	0	0	0	0
7	2023-03-30	09:26:59	09:59:29	09:59:29:366	56	3	TNT_NoThink_CSp	TNT_NoThink_CSp	0	5	0	0	0	0	5000	1	Cue29.jpg	-16	0	0	0	0	0	0
7	2023-03-30	09:26:59	09:59:29	09:59:29:934	56	4	TNT_NoThink_CSp	Intrusion	0	500	3000	0	79	1	551	1	How <b>often</b> did you <b>think</b> about the <b>scene</b>?   <center><br><b>NEVER (1)    BRIEFLY (2)   OFTEN (3) </b>	-16	0	0	0	0	0	0
7	2023-03-30	09:26:59	09:59:33	09:59:33:870	57	1	TNT_Think_CSm	fixation	0	5	1500	0	0	1	1495	1	+	-8	0	0	0	0	0	0
7	2023-03-30	09:26:59	09:59:34	09:59:34:883	57	2	TNT_Think_CSm	Think	0	5	0	0	0	0	1000	1	THINK	-16	0	0	0	0	0	0
7	2023-03-30	09:26:59	09:59:39	09:59:39:900	57	3	TNT_Think_CSm	TNT_Think_CSm	0	5	0	0	0	0	5000	6	Cue14.jpg	-16	0	0	0	0	0	0
7	2023-03-30	09:26:59	09:59:40	09:59:40:718	57	4	TNT_Think_CSm	Intrusion	0	1000	3000	0	81	1	802	1	How <b>often</b> did you <b>think</b> about the <b>scene</b>?   <center><br><b>NEVER (1)    BRIEFLY (2)   OFTEN (3) </b>	-16	0	0	0	0	0	0
7	2023-03-30	09:26:59	09:59:43	09:59:43:903	58	1	TNT_NoThink_CSm	fixation	0	5	1000	0	0	1	995	1	+	-9	0	0	0	0	0	0
7	2023-03-30	09:26:59	09:59:44	09:59:44:917	58	2	TNT_NoThink_CSm	NoThink	0	5	0	0	0	0	1000	1	DON'T THINK	-16	0	0	0	0	0	0
7	2023-03-30	09:26:59	09:59:49	09:59:49:934	58	3	TNT_NoThink_CSm	TNT_NoThink_CSm	0	5	0	0	0	0	5000	5	Cue17.jpg	-16	0	0	0	0	0	0
7	2023-03-30	09:26:59	09:59:50	09:59:50:446	58	4	TNT_NoThink_CSm	Intrusion	0	1000	3000	0	80	1	496	1	How <b>often</b> did you <b>think</b> about the <b>scene</b>?   <center><br><b>NEVER (1)    BRIEFLY (2)   OFTEN (3) </b>	-16	0	0	0	0	0	0
7	2023-03-30	09:26:59	09:59:54	09:59:54:438	59	1	TNT_NoThink_CSm	fixation	0	5	1500	0	0	1	1495	1	+	-16	0	0	0	0	0	0
7	2023-03-30	09:26:59	09:59:55	09:59:55:451	59	2	TNT_NoThink_CSm	NoThink	0	5	0	0	0	0	1000	1	DON'T THINK	-16	0	0	0	0	0	0
7	2023-03-30	09:26:59	10:00:00	10:00:00:468	59	3	TNT_NoThink_CSm	TNT_NoThink_CSm	0	5	0	0	0	0	5000	6	Cue10.jpg	-16	0	0	0	0	0	0
7	2023-03-30	09:26:59	10:00:00	10:00:00:846	59	4	TNT_NoThink_CSm	Intrusion	0	500	3000	0	80	1	362	1	How <b>often</b> did you <b>think</b> about the <b>scene</b>?   <center><br><b>NEVER (1)    BRIEFLY (2)   OFTEN (3) </b>	-16	0	0	0	0	0	0
7	2023-03-30	09:26:59	10:00:03	10:00:03:972	60	1	TNT_Object_CSm	fixation	0	5	500	0	0	1	495	1	+	-16	0	0	0	0	0	0
7	2023-03-30	09:26:59	10:00:04	10:00:04:984	60	2	TNT_Object_CSm	Passive	0	5	0	0	0	0	1000	1	VIEW	-16	0	0	0	0	0	0
7	2023-03-30	09:26:59	10:00:09	10:00:09:02	60	3	TNT_Object_CSm	TNT_Object_CSm	0	1000	0	0	0	0	5000	4	Object1.jpg	-16	0	0	0	0	0	0
7	2023-03-30	09:26:59	10:00:11	10:00:11:01	61	1	TNT_Think_CSp	fixation	0	5	1000	0	0	1	995	1	+	-9	0	0	0	0	0	0
7	2023-03-30	09:26:59	10:00:12	10:00:12:018	61	2	TNT_Think_CSp	Think	0	5	0	0	0	0	1000	1	THINK	-16	0	0	0	0	0	0
7	2023-03-30	09:26:59	10:00:17	10:00:17:035	61	3	TNT_Think_CSp	TNT_Think_CSp	0	5	0	0	0	0	5000	3	Cue32.jpg	-16	0	0	0	0	0	0
7	2023-03-30	09:26:59	10:00:19	10:00:19:518	61	4	TNT_Think_CSp	Intrusion	0	1500	3000	0	81	1	1466	1	How <b>often</b> did you <b>think</b> about the <b>scene</b>?   <center><br><b>NEVER (1)    BRIEFLY (2)   OFTEN (3) </b>	-16	0	0	0	0	0	0
7	2023-03-30	09:26:59	10:00:21	10:00:21:039	62	1	TNT_NoThink_CSp	fixation	0	5	1000	0	0	1	995	1	+	-8	0	0	0	0	0	0
7	2023-03-30	09:26:59	10:00:22	10:00:22:053	62	2	TNT_NoThink_CSp	NoThink	0	5	0	0	0	0	1000	1	DON'T THINK	-16	0	0	0	0	0	0
7	2023-03-30	09:26:59	10:00:27	10:00:27:069	62	3	TNT_NoThink_CSp	TNT_NoThink_CSp	0	5	0	0	0	0	5000	4	Cue28.jpg	-16	0	0	0	0	0	0
7	2023-03-30	09:26:59	10:00:28	10:00:28:558	62	4	TNT_NoThink_CSp	Intrusion	0	1000	3000	0	79	1	471	1	How <b>often</b> did you <b>think</b> about the <b>scene</b>?   <center><br><b>NEVER (1)    BRIEFLY (2)   OFTEN (3) </b>	-16	0	0	0	0	0	0
7	2023-03-30	09:26:59	10:00:32	10:00:32:573	63	1	TNT_Think_CSp	fixation	0	5	1500	0	0	1	1495	1	+	-9	0	0	0	0	0	0
7	2023-03-30	09:26:59	10:00:33	10:00:33:586	63	2	TNT_Think_CSp	Think	0	5	0	0	0	0	1000	1	THINK	-16	0	0	0	0	0	0
7	2023-03-30	09:26:59	10:00:38	10:00:38:603	63	3	TNT_Think_CSp	TNT_Think_CSp	0	5	0	0	0	0	5000	5	Cue7.jpg	-16	0	0	0	0	0	0
7	2023-03-30	09:26:59	10:00:39	10:00:39:294	63	4	TNT_Think_CSp	Intrusion	0	1500	3000	0	81	1	673	1	How <b>often</b> did you <b>think</b> about the <b>scene</b>?   <center><br><b>NEVER (1)    BRIEFLY (2)   OFTEN (3) </b>	-16	0	0	0	0	0	0
7	2023-03-30	09:26:59	10:00:41	10:00:41:107	64	1	TNT_Object_CSm	fixation	0	5	500	0	0	1	495	1	+	-7	0	0	0	0	0	0
7	2023-03-30	09:26:59	10:00:42	10:00:42:120	64	2	TNT_Object_CSm	Passive	0	5	0	0	0	0	1000	1	VIEW	-16	0	0	0	0	0	0
7	2023-03-30	09:26:59	10:00:47	10:00:47:137	64	3	TNT_Object_CSm	TNT_Object_CSm	0	1500	0	0	0	0	5000	3	Object8.jpg	-16	0	0	0	0	0	0
7	2023-03-30	09:26:59	10:00:50	10:00:50:637	65	1	TNT_Think_CSp	fixation	0	5	1000	0	0	1	995	1	+	-6	0	0	0	0	0	0
7	2023-03-30	09:26:59	10:00:51	10:00:51:654	65	2	TNT_Think_CSp	Think	0	5	0	0	0	0	1000	1	THINK	-16	0	0	0	0	0	0
7	2023-03-30	09:26:59	10:00:56	10:00:56:671	65	3	TNT_Think_CSp	TNT_Think_CSp	0	5	0	0	0	0	5000	2	Cue4.jpg	-16	0	0	0	0	0	0
7	2023-03-30	09:26:59	10:00:57	10:00:57:214	65	4	TNT_Think_CSp	Intrusion	0	500	3000	0	81	1	525	1	How <b>often</b> did you <b>think</b> about the <b>scene</b>?   <center><br><b>NEVER (1)    BRIEFLY (2)   OFTEN (3) </b>	-16	0	0	0	0	0	0
7	2023-03-30	09:26:59	10:01:00	10:01:00:175	66	1	Expectancy_rating	fixation	0	5	500	0	0	1	495	1	+	-8	0	0	0	0	0	0
7	2023-03-30	09:26:59	10:01:06	10:01:06:070	66	2	Expectancy_rating	expectancy_rating	0	500	0	0	100	0	6874	1	When you saw the <b>object</b>,   to what <b>degree (0-100%)</b> did you expect the <b>unpleasant sound to occur</b>?	-16	16	Cue16.jpg	-16	0	0	0
7	2023-03-30	09:26:59	10:01:08	10:01:08:070	67	1	Expectancy_rating	fixation	0	5	1500	0	0	1	1495	1	+	-13	0	0	0	0	0	0
7	2023-03-30	09:26:59	10:01:12	10:01:12:936	67	2	Expectancy_rating	expectancy_rating	0	1000	0	0	0	0	3813	1	When you saw the <b>object</b>,   to what <b>degree (0-100%)</b> did you expect the <b>unpleasant sound to occur</b>?	-16	47	Object7.jpg	-16	0	0	0
7	2023-03-30	09:26:59	10:01:15	10:01:15:420	68	1	Expectancy_rating	fixation	0	5	1500	0	0	1	1495	1	+	-13	0	0	0	0	0	0
7	2023-03-30	09:26:59	10:01:21	10:01:21:088	68	2	Expectancy_rating	expectancy_rating	0	1500	0	0	30	0	6647	1	When you saw the <b>object</b>,   to what <b>degree (0-100%)</b> did you expect the <b>unpleasant sound to occur</b>?	-9	10	Cue10.jpg	-9	0	0	0
7	2023-03-30	09:26:59	10:01:24	10:01:24:587	69	1	Expectancy_rating	fixation	0	5	1000	0	0	1	995	1	+	-12	0	0	0	0	0	0
7	2023-03-30	09:26:59	10:01:27	10:01:27:171	69	2	Expectancy_rating	expectancy_rating	0	500	0	0	0	0	3552	1	When you saw the <b>object</b>,   to what <b>degree (0-100%)</b> did you expect the <b>unpleasant sound to occur</b>?	-16	17	Cue17.jpg	-16	0	0	0
7	2023-03-30	09:26:59	10:01:28	10:01:28:172	70	1	Expectancy_rating	fixation	0	5	500	0	0	1	495	1	+	-13	0	0	0	0	0	0
7	2023-03-30	09:26:59	10:01:32	10:01:32:021	70	2	Expectancy_rating	expectancy_rating	0	1500	0	0	80	0	3800	1	When you saw the <b>object</b>,   to what <b>degree (0-100%)</b> did you expect the <b>unpleasant sound to occur</b>?	-16	21	Cue21.jpg	-16	0	0	0
7	2023-03-30	09:26:59	10:01:35	10:01:35:503	71	1	Expectancy_rating	fixation	0	5	1000	0	0	1	995	1	+	-13	0	0	0	0	0	0
7	2023-03-30	09:26:59	10:01:39	10:01:39:738	71	2	Expectancy_rating	expectancy_rating	0	1000	0	0	70	0	4203	1	When you saw the <b>object</b>,   to what <b>degree (0-100%)</b> did you expect the <b>unpleasant sound to occur</b>?	-11	12	Cue12.jpg	-11	0	0	0
7	2023-03-30	09:26:59	10:01:41	10:01:41:237	72	1	Expectancy_rating	fixation	0	5	500	0	0	1	495	1	+	-13	0	0	0	0	0	0
7	2023-03-30	09:26:59	10:01:49	10:01:49:055	72	2	Expectancy_rating	expectancy_rating	0	1000	0	0	70	0	8797	1	When you saw the <b>object</b>,   to what <b>degree (0-100%)</b> did you expect the <b>unpleasant sound to occur</b>?	-10	37	Cue37.jpg	-10	0	0	0
7	2023-03-30	09:26:59	10:01:52	10:01:52:554	73	1	Expectancy_rating	fixation	0	5	1500	0	0	1	1495	1	+	-13	0	0	0	0	0	0
7	2023-03-30	09:26:59	10:01:54	10:01:54:123	73	2	Expectancy_rating	expectancy_rating	0	500	0	0	50	0	2536	1	When you saw the <b>object</b>,   to what <b>degree (0-100%)</b> did you expect the <b>unpleasant sound to occur</b>?	-10	42	Object2.jpg	-10	0	0	0
7	2023-03-30	09:26:59	10:01:56	10:01:56:622	74	1	Expectancy_rating	fixation	0	5	1000	0	0	1	995	1	+	-13	0	0	0	0	0	0
7	2023-03-30	09:26:59	10:02:00	10:02:00:107	74	2	Expectancy_rating	expectancy_rating	0	1500	0	0	60	0	4461	1	When you saw the <b>object</b>,   to what <b>degree (0-100%)</b> did you expect the <b>unpleasant sound to occur</b>?	-16	18	Cue18.jpg	-16	0	0	0
7	2023-03-30	09:26:59	10:02:03	10:02:03:106	75	1	Expectancy_rating	fixation	0	5	1500	0	0	1	1495	1	+	-13	0	0	0	0	0	0
7	2023-03-30	09:26:59	10:02:06	10:02:06:940	75	2	Expectancy_rating	expectancy_rating	0	1000	0	0	50	0	2809	1	When you saw the <b>object</b>,   to what <b>degree (0-100%)</b> did you expect the <b>unpleasant sound to occur</b>?	-16	31	Cue31.jpg	-16	0	0	0
7	2023-03-30	09:26:59	10:02:08	10:02:08:440	76	1	Expectancy_rating	fixation	0	5	500	0	0	1	495	1	+	-13	0	0	0	0	0	0
7	2023-03-30	09:26:59	10:02:13	10:02:13:757	76	2	Expectancy_rating	expectancy_rating	0	500	0	0	60	0	5292	1	When you saw the <b>object</b>,   to what <b>degree (0-100%)</b> did you expect the <b>unpleasant sound to occur</b>?	-16	6	Cue6.jpg	-16	0	0	0
7	2023-03-30	09:26:59	10:02:15	10:02:15:257	77	1	Expectancy_rating	fixation	0	5	1000	0	0	1	995	1	+	-13	0	0	0	0	0	0
7	2023-03-30	09:26:59	10:02:19	10:02:19:408	77	2	Expectancy_rating	expectancy_rating	0	1500	0	0	30	0	4122	1	When you saw the <b>object</b>,   to what <b>degree (0-100%)</b> did you expect the <b>unpleasant sound to occur</b>?	-16	22	Cue22.jpg	-16	0	0	0
7	2023-03-30	09:26:59	10:02:22	10:02:22:407	78	1	Expectancy_rating	fixation	0	5	1500	0	0	1	1495	1	+	-13	0	0	0	0	0	0
7	2023-03-30	09:26:59	10:02:24	10:02:24:025	78	2	Expectancy_rating	expectancy_rating	0	500	0	0	100	0	2596	1	When you saw the <b>object</b>,   to what <b>degree (0-100%)</b> did you expect the <b>unpleasant sound to occur</b>?	-16	35	Cue35.jpg	-16	0	0	0
7	2023-03-30	09:26:59	10:02:25	10:02:25:024	79	1	Expectancy_rating	fixation	0	5	500	0	0	1	495	1	+	-12	0	0	0	0	0	0
7	2023-03-30	09:26:59	10:02:32	10:02:32:109	79	2	Expectancy_rating	expectancy_rating	0	1000	0	0	10	0	7059	1	When you saw the <b>object</b>,   to what <b>degree (0-100%)</b> did you expect the <b>unpleasant sound to occur</b>?	-16	26	Cue26.jpg	-16	0	0	0
7	2023-03-30	09:26:59	10:02:34	10:02:34:108	80	1	Expectancy_rating	fixation	0	5	1000	0	0	1	995	1	+	-12	0	0	0	0	0	0
7	2023-03-30	09:26:59	10:02:42	10:02:42:542	80	2	Expectancy_rating	expectancy_rating	0	1500	0	0	70	0	7383	1	When you saw the <b>object</b>,   to what <b>degree (0-100%)</b> did you expect the <b>unpleasant sound to occur</b>?	-16	39	Cue39.jpg	-16	0	0	0
7	2023-03-30	09:26:59	10:02:44	10:02:44:526	81	1	Expectancy_rating	fixation	0	5	500	0	0	1	495	1	+	-10	0	0	0	0	0	0
7	2023-03-30	09:26:59	10:02:58	10:02:58:259	81	2	Expectancy_rating	expectancy_rating	0	500	0	0	60	0	13710	1	When you saw the <b>object</b>,   to what <b>degree (0-100%)</b> did you expect the <b>unpleasant sound to occur</b>?	-16	38	Cue38.jpg	-16	0	0	0
7	2023-03-30	09:26:59	10:03:00	10:03:00:262	82	1	Expectancy_rating	fixation	0	5	1500	0	0	1	1495	1	+	-8	0	0	0	0	0	0
7	2023-03-30	09:26:59	10:03:03	10:03:03:310	82	2	Expectancy_rating	expectancy_rating	0	1500	0	0	100	0	3000	1	When you saw the <b>object</b>,   to what <b>degree (0-100%)</b> did you expect the <b>unpleasant sound to occur</b>?	-16	43	Object3.jpg	-16	0	0	0
7	2023-03-30	09:26:59	10:03:05	10:03:05:793	83	1	Expectancy_rating	fixation	0	5	1000	0	0	1	995	1	+	-13	0	0	0	0	0	0
7	2023-03-30	09:26:59	10:03:09	10:03:09:678	83	2	Expectancy_rating	expectancy_rating	0	1000	0	0	0	0	3858	1	When you saw the <b>object</b>,   to what <b>degree (0-100%)</b> did you expect the <b>unpleasant sound to occur</b>?	-11	27	Cue27.jpg	-11	0	0	0
7	2023-03-30	09:26:59	10:03:12	10:03:12:178	84	1	Expectancy_rating	fixation	0	5	1500	0	0	1	1495	1	+	-13	0	0	0	0	0	0
7	2023-03-30	09:26:59	10:03:17	10:03:17:544	84	2	Expectancy_rating	expectancy_rating	0	1000	0	0	60	0	5346	1	When you saw the <b>object</b>,   to what <b>degree (0-100%)</b> did you expect the <b>unpleasant sound to occur</b>?	-16	9	Cue9.jpg	-16	0	0	0
7	2023-03-30	09:26:59	10:03:18	10:03:18:045	85	1	Expectancy_rating	fixation	0	5	500	0	0	1	495	1	+	-13	0	0	0	0	0	0
7	2023-03-30	09:26:59	10:03:21	10:03:21:911	85	2	Expectancy_rating	expectancy_rating	0	1500	0	0	0	0	2815	1	When you saw the <b>object</b>,   to what <b>degree (0-100%)</b> did you expect the <b>unpleasant sound to occur</b>?	-16	24	Cue24.jpg	-16	0	0	0
7	2023-03-30	09:26:59	10:03:24	10:03:24:894	86	1	Expectancy_rating	fixation	0	5	1500	0	0	1	1495	1	+	-13	0	0	0	0	0	0
7	2023-03-30	09:26:59	10:03:30	10:03:30:628	86	2	Expectancy_rating	expectancy_rating	0	500	0	0	0	0	5709	1	When you saw the <b>object</b>,   to what <b>degree (0-100%)</b> did you expect the <b>unpleasant sound to occur</b>?	-11	48	Object8.jpg	-11	0	0	0
7	2023-03-30	09:26:59	10:03:31	10:03:31:128	87	1	Expectancy_rating	fixation	0	5	1000	0	0	1	995	1	+	-13	0	0	0	0	0	0
7	2023-03-30	09:26:59	10:03:35	10:03:35:746	87	2	Expectancy_rating	expectancy_rating	0	1500	0	0	80	0	3587	1	When you saw the <b>object</b>,   to what <b>degree (0-100%)</b> did you expect the <b>unpleasant sound to occur</b>?	-16	46	Object6.jpg	-16	0	0	0
7	2023-03-30	09:26:59	10:03:37	10:03:37:745	88	1	Expectancy_rating	fixation	0	5	500	0	0	1	495	1	+	-13	0	0	0	0	0	0
7	2023-03-30	09:26:59	10:03:46	10:03:46:212	88	2	Expectancy_rating	expectancy_rating	0	500	0	0	0	0	8418	1	When you saw the <b>object</b>,   to what <b>degree (0-100%)</b> did you expect the <b>unpleasant sound to occur</b>?	-16	25	Cue25.jpg	-16	0	0	0
7	2023-03-30	09:26:59	10:03:47	10:03:47:695	89	1	Expectancy_rating	fixation	0	5	1000	0	0	1	995	1	+	-13	0	0	0	0	0	0
7	2023-03-30	09:26:59	10:03:50	10:03:50:679	89	2	Expectancy_rating	expectancy_rating	0	1000	0	0	50	0	2932	1	When you saw the <b>object</b>,   to what <b>degree (0-100%)</b> did you expect the <b>unpleasant sound to occur</b>?	-16	36	Cue36.jpg	-16	0	0	0
7	2023-03-30	09:26:59	10:03:52	10:03:52:162	90	1	Expectancy_rating	fixation	0	5	1500	0	0	1	1495	1	+	-12	0	0	0	0	0	0
7	2023-03-30	09:26:59	10:03:55	10:03:55:429	90	2	Expectancy_rating	expectancy_rating	0	500	0	0	100	0	2216	1	When you saw the <b>object</b>,   to what <b>degree (0-100%)</b> did you expect the <b>unpleasant sound to occur</b>?	-16	11	Cue11.jpg	-16	0	0	0
7	2023-03-30	09:26:59	10:03:56	10:03:56:414	91	1	Expectancy_rating	fixation	0	5	500	0	0	1	495	1	+	-13	0	0	0	0	0	0
7	2023-03-30	09:26:59	10:03:58	10:03:58:646	91	2	Expectancy_rating	expectancy_rating	0	1000	0	0	100	0	2182	1	When you saw the <b>object</b>,   to what <b>degree (0-100%)</b> did you expect the <b>unpleasant sound to occur</b>?	-16	15	Cue15.jpg	-16	0	0	0
7	2023-03-30	09:26:59	10:04:00	10:04:00:630	92	1	Expectancy_rating	fixation	0	5	1000	0	0	1	995	1	+	-13	0	0	0	0	0	0
7	2023-03-30	09:26:59	10:04:03	10:04:03:064	92	2	Expectancy_rating	expectancy_rating	0	1500	0	0	80	0	3405	1	When you saw the <b>object</b>,   to what <b>degree (0-100%)</b> did you expect the <b>unpleasant sound to occur</b>?	-16	2	Cue2.jpg	-16	0	0	0
7	2023-03-30	09:26:59	10:04:06	10:04:06:063	93	1	Expectancy_rating	fixation	0	5	1500	0	0	1	1495	1	+	-13	0	0	0	0	0	0
7	2023-03-30	09:26:59	10:04:12	10:04:12:864	93	2	Expectancy_rating	expectancy_rating	0	500	0	0	60	0	5780	1	When you saw the <b>object</b>,   to what <b>degree (0-100%)</b> did you expect the <b>unpleasant sound to occur</b>?	-16	19	Cue19.jpg	-16	0	0	0
7	2023-03-30	09:26:59	10:04:13	10:04:13:864	94	1	Expectancy_rating	fixation	0	5	500	0	0	1	495	1	+	-13	0	0	0	0	0	0
7	2023-03-30	09:26:59	10:04:17	10:04:17:814	94	2	Expectancy_rating	expectancy_rating	0	1000	0	0	0	0	3923	1	When you saw the <b>object</b>,   to what <b>degree (0-100%)</b> did you expect the <b>unpleasant sound to occur</b>?	-16	30	Cue30.jpg	-16	0	0	0
7	2023-03-30	09:26:59	10:04:19	10:04:19:313	95	1	Expectancy_rating	fixation	0	5	500	0	0	1	495	1	+	-12	0	0	0	0	0	0
7	2023-03-30	09:26:59	10:04:22	10:04:22:431	95	2	Expectancy_rating	expectancy_rating	0	1500	0	0	100	0	3065	1	When you saw the <b>object</b>,   to what <b>degree (0-100%)</b> did you expect the <b>unpleasant sound to occur</b>?	-11	32	Cue32.jpg	-11	0	0	0
7	2023-03-30	09:26:59	10:04:24	10:04:24:914	96	1	Expectancy_rating	fixation	0	5	1000	0	0	1	995	1	+	-13	0	0	0	0	0	0
7	2023-03-30	09:26:59	10:04:27	10:04:27:782	96	2	Expectancy_rating	expectancy_rating	0	1500	0	0	100	0	2840	1	When you saw the <b>object</b>,   to what <b>degree (0-100%)</b> did you expect the <b>unpleasant sound to occur</b>?	-11	33	Cue33.jpg	-11	0	0	0
7	2023-03-30	09:26:59	10:04:30	10:04:30:781	97	1	Expectancy_rating	fixation	0	5	1500	0	0	1	1495	1	+	-12	0	0	0	0	0	0
7	2023-03-30	09:26:59	10:04:33	10:04:33:666	97	2	Expectancy_rating	expectancy_rating	0	500	0	0	100	0	2862	1	When you saw the <b>object</b>,   to what <b>degree (0-100%)</b> did you expect the <b>unpleasant sound to occur</b>?	-16	20	Cue20.jpg	-16	0	0	0
7	2023-03-30	09:26:59	10:04:34	10:04:34:665	98	1	Expectancy_rating	fixation	0	5	500	0	0	1	495	1	+	-13	0	0	0	0	0	0
7	2023-03-30	09:26:59	10:04:36	10:04:36:099	98	2	Expectancy_rating	expectancy_rating	0	1000	0	0	0	0	2410	1	When you saw the <b>object</b>,   to what <b>degree (0-100%)</b> did you expect the <b>unpleasant sound to occur</b>?	-16	45	Object5.jpg	-16	0	0	0
7	2023-03-30	09:26:59	10:04:39	10:04:39:599	99	1	Expectancy_rating	fixation	0	5	1500	0	0	1	1495	1	+	-12	0	0	0	0	0	0
7	2023-03-30	09:26:59	10:04:43	10:04:43:116	99	2	Expectancy_rating	expectancy_rating	0	500	0	0	20	0	4484	1	When you saw the <b>object</b>,   to what <b>degree (0-100%)</b> did you expect the <b>unpleasant sound to occur</b>?	-16	28	Cue28.jpg	-16	0	0	0
7	2023-03-30	09:26:59	10:04:45	10:04:45:616	100	1	Expectancy_rating	fixation	0	5	1000	0	0	1	995	1	+	-13	0	0	0	0	0	0
7	2023-03-30	09:26:59	10:04:47	10:04:47:066	100	2	Expectancy_rating	expectancy_rating	0	1000	0	0	100	0	2419	1	When you saw the <b>object</b>,   to what <b>degree (0-100%)</b> did you expect the <b>unpleasant sound to occur</b>?	-16	1	Cue1.jpg	-16	0	0	0
7	2023-03-30	09:26:59	10:04:49	10:04:49:065	101	1	Expectancy_rating	fixation	0	5	1000	0	0	1	995	1	+	-13	0	0	0	0	0	0
7	2023-03-30	09:26:59	10:04:52	10:04:52:350	101	2	Expectancy_rating	expectancy_rating	0	1500	0	0	100	0	2232	1	When you saw the <b>object</b>,   to what <b>degree (0-100%)</b> did you expect the <b>unpleasant sound to occur</b>?	-9	8	Cue8.jpg	-9	0	0	0
7	2023-03-30	09:26:59	10:04:55	10:04:55:333	102	1	Expectancy_rating	fixation	0	5	1500	0	0	1	1495	1	+	-13	0	0	0	0	0	0
7	2023-03-30	09:26:59	10:04:58	10:04:58:400	102	2	Expectancy_rating	expectancy_rating	0	1000	0	0	0	0	3014	1	When you saw the <b>object</b>,   to what <b>degree (0-100%)</b> did you expect the <b>unpleasant sound to occur</b>?	-11	3	Cue3.jpg	-11	0	0	0
7	2023-03-30	09:26:59	10:04:59	10:04:59:882	103	1	Expectancy_rating	fixation	0	5	500	0	0	1	495	1	+	-13	0	0	0	0	0	0
7	2023-03-30	09:26:59	10:05:03	10:05:03:351	103	2	Expectancy_rating	expectancy_rating	0	1500	0	0	0	0	3440	1	When you saw the <b>object</b>,   to what <b>degree (0-100%)</b> did you expect the <b>unpleasant sound to occur</b>?	-9	7	Cue7.jpg	-9	0	0	0
7	2023-03-30	09:26:59	10:05:05	10:05:05:851	104	1	Expectancy_rating	fixation	0	5	1000	0	0	1	995	1	+	-9	0	0	0	0	0	0
7	2023-03-30	09:26:59	10:05:09	10:05:09:802	104	2	Expectancy_rating	expectancy_rating	0	500	0	0	0	0	3921	1	When you saw the <b>object</b>,   to what <b>degree (0-100%)</b> did you expect the <b>unpleasant sound to occur</b>?	-16	44	Object4.jpg	-16	0	0	0
7	2023-03-30	09:26:59	10:05:11	10:05:11:802	105	1	Expectancy_rating	fixation	0	5	1500	0	0	1	1495	1	+	-9	0	0	0	0	0	0
7	2023-03-30	09:26:59	10:05:14	10:05:14:884	105	2	Expectancy_rating	expectancy_rating	0	500	0	0	0	0	3034	1	When you saw the <b>object</b>,   to what <b>degree (0-100%)</b> did you expect the <b>unpleasant sound to occur</b>?	-16	14	Cue14.jpg	-16	0	0	0
7	2023-03-30	09:26:59	10:05:15	10:05:15:868	106	1	Expectancy_rating	fixation	0	5	500	0	0	1	495	1	+	-13	0	0	0	0	0	0
7	2023-03-30	09:26:59	10:05:23	10:05:23:235	106	2	Expectancy_rating	expectancy_rating	0	1000	0	0	10	0	7344	1	When you saw the <b>object</b>,   to what <b>degree (0-100%)</b> did you expect the <b>unpleasant sound to occur</b>?	-16	5	Cue5.jpg	-16	0	0	0
7	2023-03-30	09:26:59	10:05:24	10:05:24:735	107	1	Expectancy_rating	fixation	0	5	500	0	0	1	495	1	+	-13	0	0	0	0	0	0
7	2023-03-30	09:26:59	10:05:27	10:05:27:052	107	2	Expectancy_rating	expectancy_rating	0	1500	0	0	0	0	3284	1	When you saw the <b>object</b>,   to what <b>degree (0-100%)</b> did you expect the <b>unpleasant sound to occur</b>?	-16	13	Cue13.jpg	-16	0	0	0
7	2023-03-30	09:26:59	10:05:30	10:05:30:052	108	1	Expectancy_rating	fixation	0	5	1500	0	0	1	1495	1	+	-13	0	0	0	0	0	0
7	2023-03-30	09:26:59	10:05:35	10:05:35:403	108	2	Expectancy_rating	expectancy_rating	0	1000	0	0	80	0	4328	1	When you saw the <b>object</b>,   to what <b>degree (0-100%)</b> did you expect the <b>unpleasant sound to occur</b>?	-16	23	Cue23.jpg	-16	0	0	0
7	2023-03-30	09:26:59	10:05:37	10:05:37:402	109	1	Expectancy_rating	fixation	0	5	1000	0	0	1	995	1	+	-13	0	0	0	0	0	0
7	2023-03-30	09:26:59	10:05:43	10:05:43:303	109	2	Expectancy_rating	expectancy_rating	0	1500	0	0	90	0	5873	1	When you saw the <b>object</b>,   to what <b>degree (0-100%)</b> did you expect the <b>unpleasant sound to occur</b>?	-10	40	Cue40.jpg	-10	0	0	0
7	2023-03-30	09:26:59	10:05:45	10:05:45:303	110	1	Expectancy_rating	fixation	0	5	500	0	0	1	495	1	+	-13	0	0	0	0	0	0
7	2023-03-30	09:26:59	10:05:48	10:05:48:737	110	2	Expectancy_rating	expectancy_rating	0	500	0	0	0	0	3412	1	When you saw the <b>object</b>,   to what <b>degree (0-100%)</b> did you expect the <b>unpleasant sound to occur</b>?	-16	41	Object1.jpg	-16	0	0	0
7	2023-03-30	09:26:59	10:05:50	10:05:50:736	111	1	Expectancy_rating	fixation	0	5	1500	0	0	1	1495	1	+	-13	0	0	0	0	0	0
7	2023-03-30	09:26:59	10:05:58	10:05:58:254	111	2	Expectancy_rating	expectancy_rating	0	1500	0	0	30	0	7491	1	When you saw the <b>object</b>,   to what <b>degree (0-100%)</b> did you expect the <b>unpleasant sound to occur</b>?	-16	34	Cue34.jpg	-16	0	0	0
7	2023-03-30	09:26:59	10:06:00	10:06:00:755	112	1	Expectancy_rating	fixation	0	5	1000	0	0	1	995	1	+	-9	0	0	0	0	0	0
7	2023-03-30	09:26:59	10:06:04	10:06:04:554	112	2	Expectancy_rating	expectancy_rating	0	1000	0	0	60	0	3770	1	When you saw the <b>object</b>,   to what <b>degree (0-100%)</b> did you expect the <b>unpleasant sound to occur</b>?	-16	29	Cue29.jpg	-16	0	0	0
7	2023-03-30	09:26:59	10:06:05	10:06:05:055	113	1	Expectancy_rating	fixation	0	5	500	0	0	1	495	1	+	-9	0	0	0	0	0	0
7	2023-03-30	09:26:59	10:06:14	10:06:14:688	113	2	Expectancy_rating	expectancy_rating	0	500	0	0	10	0	8612	1	When you saw the <b>object</b>,   to what <b>degree (0-100%)</b> did you expect the <b>unpleasant sound to occur</b>?	-16	4	Cue4.jpg	-16	0	0	0
7	2023-03-30	09:26:59	10:06:30	10:06:30:222	114	1	continue_TNT	continue_TNT	0	5	0	0	0	0	15000	1	<center> <br><br><br> We will now continue with the next block of the attention task.   <br><br><br><center>Keep your fingers balanced on the <b>1, 2 and 3 </b>on the keyboard throughout the task   <br><br>to give the rating how well you were <b>able to think</b> or <b>not think</b> (1 = NEVER, 2 = BRIEFLY, 3 = OFTEN).  <br><br><br><br> <b>Press</b> the <b>button</b> on the <b>watch</b> for 1 second before you start!	-16	0	0	0	0	0	0
7	2023-03-30	09:26:59	10:06:31	10:06:31:723	115	1	TNT_Think_CSm	fixation	0	5	1500	0	0	1	1495	1	+	-13	0	0	0	0	0	0
7	2023-03-30	09:26:59	10:06:32	10:06:32:739	115	2	TNT_Think_CSm	Think	0	5	0	0	0	0	1000	1	THINK	-16	0	0	0	0	0	0
7	2023-03-30	09:26:59	10:06:37	10:06:37:756	115	3	TNT_Think_CSm	TNT_Think_CSm	0	5	0	0	0	0	5000	1	Cue21.jpg	-16	0	0	0	0	0	0
7	2023-03-30	09:26:59	10:06:38	10:06:38:204	115	4	TNT_Think_CSm	Intrusion	0	1000	3000	0	81	1	430	1	How <b>often</b> did you <b>think</b> about the <b>scene</b>?   <center><br><b>NEVER (1)    BRIEFLY (2)   OFTEN (3) </b>	-16	0	0	0	0	0	0
7	2023-03-30	09:26:59	10:06:41	10:06:41:759	116	1	TNT_NoThink_CSm	fixation	0	5	1000	0	0	1	995	1	+	-13	0	0	0	0	0	0
7	2023-03-30	09:26:59	10:06:42	10:06:42:773	116	2	TNT_NoThink_CSm	NoThink	0	5	0	0	0	0	1000	1	DON'T THINK	-16	0	0	0	0	0	0
7	2023-03-30	09:26:59	10:06:47	10:06:47:792	116	3	TNT_NoThink_CSm	TNT_NoThink_CSm	0	5	0	0	0	0	5000	3	Cue26.jpg	-16	0	0	0	0	0	0
7	2023-03-30	09:26:59	10:06:48	10:06:48:174	116	4	TNT_NoThink_CSm	Intrusion	0	500	3000	0	79	1	364	1	How <b>often</b> did you <b>think</b> about the <b>scene</b>?   <center><br><b>NEVER (1)    BRIEFLY (2)   OFTEN (3) </b>	-16	0	0	0	0	0	0
7	2023-03-30	09:26:59	10:06:51	10:06:51:796	117	1	TNT_Think_CSm	fixation	0	5	1000	0	0	1	995	1	+	-8	0	0	0	0	0	0
7	2023-03-30	09:26:59	10:06:52	10:06:52:809	117	2	TNT_Think_CSm	Think	0	5	0	0	0	0	1000	1	THINK	-16	0	0	0	0	0	0
7	2023-03-30	09:26:59	10:06:57	10:06:57:826	117	3	TNT_Think_CSm	TNT_Think_CSm	0	5	0	0	0	0	5000	2	Cue24.jpg	-16	0	0	0	0	0	0
7	2023-03-30	09:26:59	10:06:58	10:06:58:446	117	4	TNT_Think_CSm	Intrusion	0	1500	3000	0	81	1	603	1	How <b>often</b> did you <b>think</b> about the <b>scene</b>?   <center><br><b>NEVER (1)    BRIEFLY (2)   OFTEN (3) </b>	-16	0	0	0	0	0	0
7	2023-03-30	09:26:59	10:07:02	10:07:02:330	118	1	TNT_Think_CSm	fixation	0	5	1500	0	0	1	1495	1	+	-16	0	0	0	0	0	0
7	2023-03-30	09:26:59	10:07:03	10:07:03:342	118	2	TNT_Think_CSm	Think	0	5	0	0	0	0	1000	1	THINK	-16	0	0	0	0	0	0
7	2023-03-30	09:26:59	10:07:08	10:07:08:359	118	3	TNT_Think_CSm	TNT_Think_CSm	0	5	0	0	0	0	5000	3	Cue5.jpg	-16	0	0	0	0	0	0
7	2023-03-30	09:26:59	10:07:08	10:07:08:926	118	4	TNT_Think_CSm	Intrusion	0	500	3000	0	81	1	548	1	How <b>often</b> did you <b>think</b> about the <b>scene</b>?   <center><br><b>NEVER (1)    BRIEFLY (2)   OFTEN (3) </b>	-16	0	0	0	0	0	0
7	2023-03-30	09:26:59	10:07:11	10:07:11:863	119	1	TNT_Think_CSp	fixation	0	5	500	0	0	1	495	1	+	-9	0	0	0	0	0	0
7	2023-03-30	09:26:59	10:07:12	10:07:12:876	119	2	TNT_Think_CSp	Think	0	5	0	0	0	0	1000	1	THINK	-16	0	0	0	0	0	0
7	2023-03-30	09:26:59	10:07:17	10:07:17:893	119	3	TNT_Think_CSp	TNT_Think_CSp	0	5	0	0	0	0	5000	5	Cue7.jpg	-16	0	0	0	0	0	0
7	2023-03-30	09:26:59	10:07:18	10:07:18:590	119	4	TNT_Think_CSp	Intrusion	0	1500	3000	0	81	1	679	1	How <b>often</b> did you <b>think</b> about the <b>scene</b>?   <center><br><b>NEVER (1)    BRIEFLY (2)   OFTEN (3) </b>	-16	0	0	0	0	0	0
7	2023-03-30	09:26:59	10:07:21	10:07:21:398	120	1	TNT_NoThink_CSp	fixation	0	5	500	0	0	1	495	1	+	-16	0	0	0	0	0	0
7	2023-03-30	09:26:59	10:07:22	10:07:22:411	120	2	TNT_NoThink_CSp	NoThink	0	5	0	0	0	0	1000	1	DON'T THINK	-16	0	0	0	0	0	0
7	2023-03-30	09:26:59	10:07:27	10:07:27:427	120	3	TNT_NoThink_CSp	TNT_NoThink_CSp	0	5	0	0	0	0	5000	1	Cue29.jpg	-16	0	0	0	0	0	0
7	2023-03-30	09:26:59	10:07:27	10:07:27:854	120	4	TNT_NoThink_CSp	Intrusion	0	1000	3000	0	79	1	409	1	How <b>often</b> did you <b>think</b> about the <b>scene</b>?   <center><br><b>NEVER (1)    BRIEFLY (2)   OFTEN (3) </b>	-16	0	0	0	0	0	0
7	2023-03-30	09:26:59	10:07:31	10:07:31:931	121	1	TNT_Object_CSm	fixation	0	5	1500	0	0	1	1495	1	+	-16	0	0	0	0	0	0
7	2023-03-30	09:26:59	10:07:32	10:07:32:945	121	2	TNT_Object_CSm	Passive	0	5	0	0	0	0	1000	1	VIEW	-16	0	0	0	0	0	0
7	2023-03-30	09:26:59	10:07:37	10:07:37:961	121	3	TNT_Object_CSm	TNT_Object_CSm	0	500	0	0	0	0	5000	4	Object1.jpg	-16	0	0	0	0	0	0
7	2023-03-30	09:26:59	10:07:39	10:07:39:461	122	1	TNT_Think_CSp	fixation	0	5	1000	0	0	1	995	1	+	-9	0	0	0	0	0	0
7	2023-03-30	09:26:59	10:07:40	10:07:40:478	122	2	TNT_Think_CSp	Think	0	5	0	0	0	0	1000	1	THINK	-16	0	0	0	0	0	0
7	2023-03-30	09:26:59	10:07:45	10:07:45:495	122	3	TNT_Think_CSp	TNT_Think_CSp	0	5	0	0	0	0	5000	2	Cue4.jpg	-16	0	0	0	0	0	0
7	2023-03-30	09:26:59	10:07:45	10:07:45:886	122	4	TNT_Think_CSp	Intrusion	0	500	3000	0	81	1	373	1	How <b>often</b> did you <b>think</b> about the <b>scene</b>?   <center><br><b>NEVER (1)    BRIEFLY (2)   OFTEN (3) </b>	-16	0	0	0	0	0	0
7	2023-03-30	09:26:59	10:07:48	10:07:48:999	123	1	TNT_Think_CSp	fixation	0	5	500	0	0	1	495	1	+	-8	0	0	0	0	0	0
7	2023-03-30	09:26:59	10:07:49	10:07:49:012	123	2	TNT_Think_CSp	Think	0	5	0	0	0	0	1000	1	THINK	-16	0	0	0	0	0	0
7	2023-03-30	09:26:59	10:07:54	10:07:54:029	123	3	TNT_Think_CSp	TNT_Think_CSp	0	5	0	0	0	0	5000	6	Cue2.jpg	-16	0	0	0	0	0	0
7	2023-03-30	09:26:59	10:07:55	10:07:55:918	123	4	TNT_Think_CSp	Intrusion	0	1000	3000	0	81	1	871	1	How <b>often</b> did you <b>think</b> about the <b>scene</b>?   <center><br><b>NEVER (1)    BRIEFLY (2)   OFTEN (3) </b>	-16	0	0	0	0	0	0
7	2023-03-30	09:26:59	10:07:58	10:07:58:032	124	1	TNT_NoThink_CSm	fixation	0	5	1000	0	0	1	995	1	+	-9	0	0	0	0	0	0
7	2023-03-30	09:26:59	10:07:59	10:07:59:046	124	2	TNT_NoThink_CSm	NoThink	0	5	0	0	0	0	1000	1	DON'T THINK	-16	0	0	0	0	0	0
7	2023-03-30	09:26:59	10:08:04	10:08:04:063	124	3	TNT_NoThink_CSm	TNT_NoThink_CSm	0	5	0	0	0	0	5000	5	Cue17.jpg	-16	0	0	0	0	0	0
7	2023-03-30	09:26:59	10:08:05	10:08:05:534	124	4	TNT_NoThink_CSm	Intrusion	0	1500	3000	0	79	1	453	1	How <b>often</b> did you <b>think</b> about the <b>scene</b>?   <center><br><b>NEVER (1)    BRIEFLY (2)   OFTEN (3) </b>	-16	0	0	0	0	0	0
7	2023-03-30	09:26:59	10:08:09	10:08:09:567	125	1	TNT_Think_CSp	fixation	0	5	1500	0	0	1	1495	1	+	-8	0	0	0	0	0	0
7	2023-03-30	09:26:59	10:08:10	10:08:10:580	125	2	TNT_Think_CSp	Think	0	5	0	0	0	0	1000	1	THINK	-16	0	0	0	0	0	0
7	2023-03-30	09:26:59	10:08:15	10:08:15:597	125	3	TNT_Think_CSp	TNT_Think_CSp	0	5	0	0	0	0	5000	1	Cue20.jpg	-16	0	0	0	0	0	0
7	2023-03-30	09:26:59	10:08:16	10:08:16:238	125	4	TNT_Think_CSp	Intrusion	0	1500	3000	0	81	1	623	1	How <b>often</b> did you <b>think</b> about the <b>scene</b>?   <center><br><b>NEVER (1)    BRIEFLY (2)   OFTEN (3) </b>	-16	0	0	0	0	0	0
7	2023-03-30	09:26:59	10:08:18	10:08:18:100	126	1	TNT_NoThink_CSm	fixation	0	5	500	0	0	1	495	1	+	-8	0	0	0	0	0	0
7	2023-03-30	09:26:59	10:08:19	10:08:19:114	126	2	TNT_NoThink_CSm	NoThink	0	5	0	0	0	0	1000	1	DON'T THINK	-16	0	0	0	0	0	0
7	2023-03-30	09:26:59	10:08:24	10:08:24:131	126	3	TNT_NoThink_CSm	TNT_NoThink_CSm	0	5	0	0	0	0	5000	2	Cue22.jpg	-16	0	0	0	0	0	0
7	2023-03-30	09:26:59	10:08:25	10:08:25:774	126	4	TNT_NoThink_CSm	Intrusion	0	1000	3000	0	79	1	626	1	How <b>often</b> did you <b>think</b> about the <b>scene</b>?   <center><br><b>NEVER (1)    BRIEFLY (2)   OFTEN (3) </b>	-16	0	0	0	0	0	0
7	2023-03-30	09:26:59	10:08:29	10:08:29:635	127	1	TNT_Think_CSp	fixation	0	5	1500	0	0	1	1495	1	+	-9	0	0	0	0	0	0
7	2023-03-30	09:26:59	10:08:30	10:08:30:648	127	2	TNT_Think_CSp	Think	0	5	0	0	0	0	1000	1	THINK	-16	0	0	0	0	0	0
7	2023-03-30	09:26:59	10:08:35	10:08:35:665	127	3	TNT_Think_CSp	TNT_Think_CSp	0	5	0	0	0	0	5000	4	Cue1.jpg	-16	0	0	0	0	0	0
7	2023-03-30	09:26:59	10:08:36	10:08:36:366	127	4	TNT_Think_CSp	Intrusion	0	500	3000	0	81	1	683	1	How <b>often</b> did you <b>think</b> about the <b>scene</b>?   <center><br><b>NEVER (1)    BRIEFLY (2)   OFTEN (3) </b>	-16	0	0	0	0	0	0
7	2023-03-30	09:26:59	10:08:39	10:08:39:669	128	1	TNT_Think_CSm	fixation	0	5	1000	0	0	1	995	1	+	-16	0	0	0	0	0	0
7	2023-03-30	09:26:59	10:08:40	10:08:40:682	128	2	TNT_Think_CSm	Think	0	5	0	0	0	0	1000	1	THINK	-16	0	0	0	0	0	0
7	2023-03-30	09:26:59	10:08:45	10:08:45:699	128	3	TNT_Think_CSm	TNT_Think_CSm	0	5	0	0	0	0	5000	5	Cue18.jpg	-16	0	0	0	0	0	0
7	2023-03-30	09:26:59	10:08:46	10:08:46:494	128	4	TNT_Think_CSm	Intrusion	0	500	3000	0	81	1	778	1	How <b>often</b> did you <b>think</b> about the <b>scene</b>?   <center><br><b>NEVER (1)    BRIEFLY (2)   OFTEN (3) </b>	-16	0	0	0	0	0	0
7	2023-03-30	09:26:59	10:08:50	10:08:50:203	129	1	TNT_NoThink_CSm	fixation	0	5	1500	0	0	1	1495	1	+	-8	0	0	0	0	0	0
7	2023-03-30	09:26:59	10:08:51	10:08:51:216	129	2	TNT_NoThink_CSm	NoThink	0	5	0	0	0	0	1000	1	DON'T THINK	-16	0	0	0	0	0	0
7	2023-03-30	09:26:59	10:08:56	10:08:56:232	129	3	TNT_NoThink_CSm	TNT_NoThink_CSm	0	5	0	0	0	0	5000	6	Cue10.jpg	-16	0	0	0	0	0	0
7	2023-03-30	09:26:59	10:08:56	10:08:56:926	129	4	TNT_NoThink_CSm	Intrusion	0	1500	3000	0	79	1	676	1	How <b>often</b> did you <b>think</b> about the <b>scene</b>?   <center><br><b>NEVER (1)    BRIEFLY (2)   OFTEN (3) </b>	-16	0	0	0	0	0	0
7	2023-03-30	09:26:59	10:08:59	10:08:59:737	130	1	TNT_Object_CSp	fixation	0	5	500	0	0	1	495	1	+	-8	0	0	0	0	0	0
7	2023-03-30	09:26:59	10:09:00	10:09:00:750	130	2	TNT_Object_CSp	Passive	0	5	0	0	0	0	1000	1	VIEW	-16	0	0	0	0	0	0
7	2023-03-30	09:26:59	10:09:05	10:09:05:766	130	3	TNT_Object_CSp	TNT_Object_CSp	0	1000	0	0	0	0	5000	2	Object7.jpg	-16	0	0	0	0	0	0
7	2023-03-30	09:26:59	10:09:07	10:09:07:766	131	1	TNT_NoThink_CSp	fixation	0	5	1000	0	0	1	995	1	+	-8	0	0	0	0	0	0
7	2023-03-30	09:26:59	10:09:08	10:09:08:784	131	2	TNT_NoThink_CSp	NoThink	0	5	0	0	0	0	1000	1	DON'T THINK	-16	0	0	0	0	0	0
7	2023-03-30	09:26:59	10:09:13	10:09:13:800	131	3	TNT_NoThink_CSp	TNT_NoThink_CSp	0	5	0	0	0	0	5000	3	Cue8.jpg	-16	0	0	0	0	0	0
7	2023-03-30	09:26:59	10:09:13	10:09:13:158	131	4	TNT_NoThink_CSp	Intrusion	0	1000	3000	0	80	1	340	1	How <b>often</b> did you <b>think</b> about the <b>scene</b>?   <center><br><b>NEVER (1)    BRIEFLY (2)   OFTEN (3) </b>	-16	0	0	0	0	0	0
7	2023-03-30	09:26:59	10:09:17	10:09:17:804	132	1	TNT_Object_CSp	fixation	0	5	1000	0	0	1	995	1	+	-8	0	0	0	0	0	0
7	2023-03-30	09:26:59	10:09:18	10:09:18:817	132	2	TNT_Object_CSp	Passive	0	5	0	0	0	0	1000	1	VIEW	-16	0	0	0	0	0	0
