subject	date	time	currenttime	currenttime_plus_ms	blocknum	trialnum	blockcode	trialcode	pretrialpause	posttrialpause	trialduration	trialtimeout	response	correct	latency	stimulusnumber1	stimulusitem1	stimulusonset1	stimulusnumber2	stimulusitem2	stimulusonset2	stimulusnumber3	stimulusitem3	stimulusonset3
8	2023-03-31	08:51:37	08:53:00	08:53:00:023	2	1	Reminder_NoThink_CSm	fixation	0	5	1000	0	0	1	995	1	+	-16	0	0	0	0	0	0
8	2023-03-31	08:51:37	08:53:05	08:53:05:056	2	2	Reminder_NoThink_CSm	NoThink_CSm	0	5	0	0	0	0	5000	1	+	-16	5	Cue7.jpg	-16	5	Target7.jpg	-16
8	2023-03-31	08:51:37	08:53:12	08:53:12:155	2	3	Reminder_NoThink_CSm	valence	0	5	0	0	30	0	7041	1	I found these images to be...	-3	0	0	0	0	0	0
8	2023-03-31	08:51:37	08:53:16	08:53:16:321	2	4	Reminder_NoThink_CSm	expectancy	0	1500	0	0	0	0	4084	1	When you saw the <b>object-scene</b>,   to what <b>degree (0-100%)</b> did you expect the <b>unpleasant sound to occur</b>?	-5	0	0	0	0	0	0
8	2023-03-31	08:51:37	08:53:18	08:53:18:304	3	1	Reminder_Think_CSp	fixation	0	5	500	0	0	1	495	1	+	-15	0	0	0	0	0	0
8	2023-03-31	08:51:37	08:53:23	08:53:23:322	3	2	Reminder_Think_CSp	Think_CSp	0	5	0	0	0	0	5000	1	+	-14	4	Cue15.jpg	-14	4	Target15.jpg	-14
8	2023-03-31	08:51:37	08:53:29	08:53:29:105	3	3	Reminder_Think_CSp	valence	0	5	0	0	40	0	5734	1	I found these images to be...	-16	0	0	0	0	0	0
8	2023-03-31	08:51:37	08:53:37	08:53:37:406	3	4	Reminder_Think_CSp	expectancy	0	1000	0	0	10	0	8254	1	When you saw the <b>object-scene</b>,   to what <b>degree (0-100%)</b> did you expect the <b>unpleasant sound to occur</b>?	-12	0	0	0	0	0	0
8	2023-03-31	08:51:37	08:53:39	08:53:39:905	4	1	Reminder_Think_CSp	fixation	0	5	1500	0	0	1	1495	1	+	-15	0	0	0	0	0	0
8	2023-03-31	08:51:37	08:53:44	08:53:44:923	4	2	Reminder_Think_CSp	Think_CSp	0	5	0	0	0	0	5000	1	+	-16	6	Cue21.jpg	-16	6	Target21.jpg	-16
8	2023-03-31	08:51:37	08:53:50	08:53:50:757	4	3	Reminder_Think_CSp	valence	0	5	0	0	40	0	5805	1	I found these images to be...	-16	0	0	0	0	0	0
8	2023-03-31	08:51:37	08:53:55	08:53:55:041	4	4	Reminder_Think_CSp	expectancy	0	500	0	0	90	0	4243	1	When you saw the <b>object-scene</b>,   to what <b>degree (0-100%)</b> did you expect the <b>unpleasant sound to occur</b>?	-11	0	0	0	0	0	0
8	2023-03-31	08:51:37	08:53:57	08:53:57:040	5	1	Reminder_NoThink_CSm	fixation	0	5	1500	0	0	1	1495	1	+	-14	0	0	0	0	0	0
8	2023-03-31	08:51:37	08:54:02	08:54:02:058	5	2	Reminder_NoThink_CSm	NoThink_CSm	0	5	0	0	0	0	5000	1	+	-14	1	Cue11.jpg	-14	1	Target11.jpg	-14
8	2023-03-31	08:51:37	08:54:08	08:54:08:375	5	3	Reminder_NoThink_CSm	valence	0	5	0	0	40	0	6286	1	I found these images to be...	-16	0	0	0	0	0	0
8	2023-03-31	08:51:37	08:54:12	08:54:12:224	5	4	Reminder_NoThink_CSm	expectancy	0	1500	0	0	0	0	3808	1	When you saw the <b>object-scene</b>,   to what <b>degree (0-100%)</b> did you expect the <b>unpleasant sound to occur</b>?	-10	0	0	0	0	0	0
8	2023-03-31	08:51:37	08:54:14	08:54:14:725	6	1	Reminder_Baseline_CSp	fixation	0	5	1000	0	0	1	995	1	+	-14	0	0	0	0	0	0
8	2023-03-31	08:51:37	08:54:19	08:54:19:742	6	2	Reminder_Baseline_CSp	Baseline_CSp	0	5	0	0	0	0	5000	1	+	-16	1	Cue14.jpg	-16	1	Target14.jpg	-16
8	2023-03-31	08:51:37	08:54:24	08:54:24:242	6	3	Reminder_Baseline_CSp	valence	0	5	0	0	20	0	4450	1	I found these images to be...	-15	0	0	0	0	0	0
8	2023-03-31	08:51:37	08:54:33	08:54:33:477	6	4	Reminder_Baseline_CSp	expectancy	0	500	0	0	60	0	9190	1	When you saw the <b>object-scene</b>,   to what <b>degree (0-100%)</b> did you expect the <b>unpleasant sound to occur</b>?	-12	0	0	0	0	0	0
8	2023-03-31	08:51:37	08:54:34	08:54:34:477	7	1	Reminder_Objects_CSp	fixation	0	5	500	0	0	1	495	1	+	-15	0	0	0	0	0	0
8	2023-03-31	08:51:37	08:54:39	08:54:39:493	7	2	Reminder_Objects_CSp	Objects_CSp	0	5	0	0	0	0	5000	1	Object5.jpg	-16	0	0	0	0	0	0
8	2023-03-31	08:51:37	08:54:45	08:54:45:844	7	3	Reminder_Objects_CSp	expectancy_object	0	500	0	0	80	0	6332	1	When you saw the <b>object</b>,   to what <b>degree (0-100%)</b> did you expect the <b>unpleasant sound to occur</b>?	-16	0	0	0	0	0	0
8	2023-03-31	08:51:37	08:54:46	08:54:46:842	8	1	Reminder_Baseline_CSp	fixation	0	5	500	0	0	1	495	1	+	-15	0	0	0	0	0	0
8	2023-03-31	08:51:37	08:54:51	08:54:51:863	8	2	Reminder_Baseline_CSp	Baseline_CSp	0	5	0	0	0	0	5000	1	+	-13	6	Cue18.jpg	-13	6	Target18.jpg	-13
8	2023-03-31	08:51:37	08:54:56	08:54:56:927	8	3	Reminder_Baseline_CSp	valence	0	5	0	0	10	0	5044	1	I found these images to be...	-16	0	0	0	0	0	0
8	2023-03-31	08:51:37	08:55:04	08:55:04:427	8	4	Reminder_Baseline_CSp	expectancy	0	1000	0	0	20	0	7465	1	When you saw the <b>object-scene</b>,   to what <b>degree (0-100%)</b> did you expect the <b>unpleasant sound to occur</b>?	-12	0	0	0	0	0	0
8	2023-03-31	08:51:37	08:55:06	08:55:06:926	9	1	Reminder_NoThink_CSp	fixation	0	5	1500	0	0	1	1495	1	+	-14	0	0	0	0	0	0
8	2023-03-31	08:51:37	08:55:11	08:55:11:945	9	2	Reminder_NoThink_CSp	NoThink_CSp	0	5	0	0	0	0	5000	1	+	-13	1	Cue22.jpg	-13	1	Target22.jpg	-13
8	2023-03-31	08:51:37	08:55:16	08:55:16:495	9	3	Reminder_NoThink_CSp	valence	0	5	0	0	40	0	4528	1	I found these images to be...	-16	0	0	0	0	0	0
8	2023-03-31	08:51:37	08:55:20	08:55:20:378	9	4	Reminder_NoThink_CSp	expectancy	0	1500	0	0	100	0	3841	1	When you saw the <b>object-scene</b>,   to what <b>degree (0-100%)</b> did you expect the <b>unpleasant sound to occur</b>?	-9	0	0	0	0	0	0
8	2023-03-31	08:51:37	08:55:22	08:55:22:878	10	1	Reminder_Baseline_CSm	fixation	0	5	1000	0	0	1	995	1	+	-14	0	0	0	0	0	0
8	2023-03-31	08:51:37	08:55:27	08:55:27:896	10	2	Reminder_Baseline_CSm	Baseline_CSm	0	5	0	0	0	0	5000	1	+	-13	5	Cue20.jpg	-13	5	Target20.jpg	-13
8	2023-03-31	08:51:37	08:55:32	08:55:32:980	10	3	Reminder_Baseline_CSm	valence	0	5	0	0	40	0	5057	1	I found these images to be...	-16	0	0	0	0	0	0
8	2023-03-31	08:51:37	08:55:35	08:55:35:563	10	4	Reminder_Baseline_CSm	expectancy	0	500	0	0	0	0	2548	1	When you saw the <b>object-scene</b>,   to what <b>degree (0-100%)</b> did you expect the <b>unpleasant sound to occur</b>?	-12	0	0	0	0	0	0
8	2023-03-31	08:51:37	08:55:37	08:55:37:062	11	1	Reminder_Baseline_CSm	fixation	0	5	1000	0	0	1	995	1	+	-14	0	0	0	0	0	0
8	2023-03-31	08:51:37	08:55:42	08:55:42:083	11	2	Reminder_Baseline_CSm	Baseline_CSm	0	5	0	0	0	0	5000	1	+	-16	1	Cue5.jpg	-16	1	Target5.jpg	-16
8	2023-03-31	08:51:37	08:55:45	08:55:45:464	11	3	Reminder_Baseline_CSm	valence	0	5	0	0	40	0	3360	1	I found these images to be...	-16	0	0	0	0	0	0
8	2023-03-31	08:51:37	08:55:50	08:55:50:697	11	4	Reminder_Baseline_CSm	expectancy	0	1000	0	0	0	0	5184	1	When you saw the <b>object-scene</b>,   to what <b>degree (0-100%)</b> did you expect the <b>unpleasant sound to occur</b>?	-12	0	0	0	0	0	0
8	2023-03-31	08:51:37	08:55:52	08:55:52:195	12	1	Reminder_Think_CSp	fixation	0	5	500	0	0	1	495	1	+	-15	0	0	0	0	0	0
8	2023-03-31	08:51:37	08:55:57	08:55:57:214	12	2	Reminder_Think_CSp	Think_CSp	0	5	0	0	0	0	5000	1	+	-12	5	Cue17.jpg	-12	5	Target17.jpg	-12
8	2023-03-31	08:51:37	08:56:05	08:56:05:515	12	3	Reminder_Think_CSp	valence	0	5	0	0	50	0	8251	1	I found these images to be...	-16	0	0	0	0	0	0
8	2023-03-31	08:51:37	08:56:11	08:56:11:532	12	4	Reminder_Think_CSp	expectancy	0	1500	0	0	10	0	5981	1	When you saw the <b>object-scene</b>,   to what <b>degree (0-100%)</b> did you expect the <b>unpleasant sound to occur</b>?	-10	0	0	0	0	0	0
8	2023-03-31	08:51:37	08:56:14	08:56:14:531	13	1	Reminder_NoThink_CSp	fixation	0	5	1500	0	0	1	1495	1	+	-15	0	0	0	0	0	0
8	2023-03-31	08:51:37	08:56:19	08:56:19:549	13	2	Reminder_NoThink_CSp	NoThink_CSp	0	5	0	0	0	0	5000	1	+	-14	4	Cue29.jpg	-14	4	Target29.jpg	-14
8	2023-03-31	08:51:37	08:56:24	08:56:24:665	13	3	Reminder_NoThink_CSp	valence	0	5	0	0	40	0	5068	1	I found these images to be...	-16	0	0	0	0	0	0
8	2023-03-31	08:51:37	08:56:38	08:56:38:666	13	4	Reminder_NoThink_CSp	expectancy	0	500	0	0	60	0	13958	1	When you saw the <b>object-scene</b>,   to what <b>degree (0-100%)</b> did you expect the <b>unpleasant sound to occur</b>?	-11	0	0	0	0	0	0
8	2023-03-31	08:51:37	08:56:39	08:56:39:665	14	1	Reminder_Think_CSm	fixation	0	5	500	0	0	1	495	1	+	-15	0	0	0	0	0	0
8	2023-03-31	08:51:37	08:56:44	08:56:44:683	14	2	Reminder_Think_CSm	Think_CSm	0	5	0	0	0	0	5000	1	+	-14	4	Cue30.jpg	-14	4	Target30.jpg	-14
8	2023-03-31	08:51:37	08:56:48	08:56:48:084	14	3	Reminder_Think_CSm	valence	0	5	0	0	20	0	3381	1	I found these images to be...	-16	0	0	0	0	0	0
8	2023-03-31	08:51:37	08:56:50	08:56:50:968	14	4	Reminder_Think_CSm	expectancy	0	1000	0	0	0	0	2836	1	When you saw the <b>object-scene</b>,   to what <b>degree (0-100%)</b> did you expect the <b>unpleasant sound to occur</b>?	-12	0	0	0	0	0	0
8	2023-03-31	08:51:37	08:56:52	08:56:52:966	15	1	Reminder_Objects_CSm	fixation	0	5	1000	0	0	1	995	1	+	-15	0	0	0	0	0	0
8	2023-03-31	08:51:37	08:56:57	08:56:57:984	15	2	Reminder_Objects_CSm	Objects_CSm	0	5	0	0	0	0	5000	4	Object2.jpg	-15	0	0	0	0	0	0
8	2023-03-31	08:51:37	08:57:00	08:57:00:834	15	3	Reminder_Objects_CSm	expectancy_object	0	1500	0	0	0	0	2824	1	When you saw the <b>object</b>,   to what <b>degree (0-100%)</b> did you expect the <b>unpleasant sound to occur</b>?	-16	0	0	0	0	0	0
8	2023-03-31	08:51:37	08:57:03	08:57:03:833	16	1	Reminder_Baseline_CSm	fixation	0	5	1500	0	0	1	1495	1	+	-15	0	0	0	0	0	0
8	2023-03-31	08:51:37	08:57:08	08:57:08:851	16	2	Reminder_Baseline_CSm	Baseline_CSm	0	5	0	0	0	0	5000	1	+	-13	6	Cue2.jpg	-13	6	Target2.jpg	-13
8	2023-03-31	08:51:37	08:57:13	08:57:13:102	16	3	Reminder_Baseline_CSm	valence	0	5	0	0	0	0	4229	1	I found these images to be...	-16	0	0	0	0	0	0
8	2023-03-31	08:51:37	08:57:23	08:57:23:553	16	4	Reminder_Baseline_CSm	expectancy	0	1000	0	0	10	0	10410	1	When you saw the <b>object-scene</b>,   to what <b>degree (0-100%)</b> did you expect the <b>unpleasant sound to occur</b>?	-12	0	0	0	0	0	0
8	2023-03-31	08:51:37	08:57:26	08:57:26:053	17	1	Reminder_Baseline_CSp	fixation	0	5	1500	0	0	1	1495	1	+	-9	0	0	0	0	0	0
8	2023-03-31	08:51:37	08:57:31	08:57:31:072	17	2	Reminder_Baseline_CSp	Baseline_CSp	0	5	0	0	0	0	5000	1	+	-16	4	Cue31.jpg	-16	4	Target31.jpg	-16
8	2023-03-31	08:51:37	08:57:34	08:57:34:553	17	3	Reminder_Baseline_CSp	valence	0	5	0	0	0	0	3451	1	I found these images to be...	-16	0	0	0	0	0	0
8	2023-03-31	08:51:37	08:57:42	08:57:42:820	17	4	Reminder_Baseline_CSp	expectancy	0	1500	0	0	90	0	8223	1	When you saw the <b>object-scene</b>,   to what <b>degree (0-100%)</b> did you expect the <b>unpleasant sound to occur</b>?	-10	0	0	0	0	0	0
8	2023-03-31	08:51:37	08:57:45	08:57:45:319	18	1	Reminder_Objects_CSp	fixation	0	5	1000	0	0	1	995	1	+	-15	0	0	0	0	0	0
8	2023-03-31	08:51:37	08:57:50	08:57:50:337	18	2	Reminder_Objects_CSp	Objects_CSp	0	5	0	0	0	0	5000	2	Object7.jpg	-14	0	0	0	0	0	0
8	2023-03-31	08:51:37	08:57:55	08:57:55:238	18	3	Reminder_Objects_CSp	expectancy_object	0	1000	0	0	60	0	4879	1	When you saw the <b>object</b>,   to what <b>degree (0-100%)</b> did you expect the <b>unpleasant sound to occur</b>?	-16	0	0	0	0	0	0
8	2023-03-31	08:51:37	08:57:56	08:57:56:737	19	1	Reminder_Think_CSm	fixation	0	5	500	0	0	1	495	1	+	-14	0	0	0	0	0	0
8	2023-03-31	08:51:37	08:58:01	08:58:01:755	19	2	Reminder_Think_CSm	Think_CSm	0	5	0	0	0	0	5000	1	+	-14	2	Cue25.jpg	-14	2	Target25.jpg	-14
8	2023-03-31	08:51:37	08:58:07	08:58:07:089	19	3	Reminder_Think_CSm	valence	0	5	0	0	10	0	5309	1	I found these images to be...	-16	0	0	0	0	0	0
8	2023-03-31	08:51:37	08:58:14	08:58:14:372	19	4	Reminder_Think_CSm	expectancy	0	500	0	0	0	0	7247	1	When you saw the <b>object-scene</b>,   to what <b>degree (0-100%)</b> did you expect the <b>unpleasant sound to occur</b>?	-12	0	0	0	0	0	0
8	2023-03-31	08:51:37	08:58:16	08:58:16:372	20	1	Reminder_Baseline_CSm	fixation	0	5	1500	0	0	1	1495	1	+	-15	0	0	0	0	0	0
8	2023-03-31	08:51:37	08:58:21	08:58:21:392	20	2	Reminder_Baseline_CSm	Baseline_CSm	0	5	0	0	0	0	5000	1	+	-16	4	Cue10.jpg	-16	4	Target10.jpg	-16
8	2023-03-31	08:51:37	08:58:24	08:58:24:039	20	3	Reminder_Baseline_CSm	valence	0	5	0	0	0	0	2627	1	I found these images to be...	-16	0	0	0	0	0	0
8	2023-03-31	08:51:37	08:58:29	08:58:29:089	20	4	Reminder_Baseline_CSm	expectancy	0	1500	0	0	0	0	4984	1	When you saw the <b>object-scene</b>,   to what <b>degree (0-100%)</b> did you expect the <b>unpleasant sound to occur</b>?	-12	0	0	0	0	0	0
8	2023-03-31	08:51:37	08:58:31	08:58:31:072	21	1	Reminder_Think_CSm	fixation	0	5	500	0	0	1	495	1	+	-14	0	0	0	0	0	0
8	2023-03-31	08:51:37	08:58:36	08:58:36:090	21	2	Reminder_Think_CSm	Think_CSm	0	5	0	0	0	0	5000	1	+	-16	6	Cue19.jpg	-16	6	Target19.jpg	-16
8	2023-03-31	08:51:37	08:58:39	08:58:39:457	21	3	Reminder_Think_CSm	valence	0	5	0	0	10	0	3342	1	I found these images to be...	-16	0	0	0	0	0	0
8	2023-03-31	08:51:37	08:58:47	08:58:47:841	21	4	Reminder_Think_CSm	expectancy	0	1000	0	0	0	0	8335	1	When you saw the <b>object-scene</b>,   to what <b>degree (0-100%)</b> did you expect the <b>unpleasant sound to occur</b>?	-12	0	0	0	0	0	0
8	2023-03-31	08:51:37	08:58:49	08:58:49:840	22	1	Reminder_NoThink_CSp	fixation	0	5	1000	0	0	1	995	1	+	-14	0	0	0	0	0	0
8	2023-03-31	08:51:37	08:58:54	08:58:54:858	22	2	Reminder_NoThink_CSp	NoThink_CSp	0	5	0	0	0	0	5000	1	+	-16	5	Cue1.jpg	-16	5	Target1.jpg	-16
8	2023-03-31	08:51:37	08:59:00	08:59:00:208	22	3	Reminder_NoThink_CSp	valence	0	5	0	0	20	0	5327	1	I found these images to be...	-16	0	0	0	0	0	0
8	2023-03-31	08:51:37	08:59:04	08:59:04:275	22	4	Reminder_NoThink_CSp	expectancy	0	500	0	0	70	0	4024	1	When you saw the <b>object-scene</b>,   to what <b>degree (0-100%)</b> did you expect the <b>unpleasant sound to occur</b>?	-10	0	0	0	0	0	0
8	2023-03-31	08:51:37	08:59:05	08:59:05:274	23	1	PracticeItems_NoThink	fixation	0	5	500	0	0	1	495	1	+	-14	0	0	0	0	0	0
8	2023-03-31	08:51:37	08:59:10	08:59:10:295	23	2	PracticeItems_NoThink	PracticeItems_NoThink	0	5	0	0	0	0	5000	1	+	-14	2	Cue40.jpg	-14	2	Target40.jpg	-14
8	2023-03-31	08:51:37	08:59:18	08:59:18:642	23	3	PracticeItems_NoThink	valence	0	5	0	0	30	0	8301	1	I found these images to be...	-16	0	0	0	0	0	0
8	2023-03-31	08:51:37	08:59:25	08:59:25:426	23	4	PracticeItems_NoThink	expectancy	0	500	0	0	50	0	6741	1	When you saw the <b>object-scene</b>,   to what <b>degree (0-100%)</b> did you expect the <b>unpleasant sound to occur</b>?	-12	0	0	0	0	0	0
8	2023-03-31	08:51:37	08:59:27	08:59:27:425	24	1	PracticeItems_NoThink	fixation	0	5	1500	0	0	1	1495	1	+	-15	0	0	0	0	0	0
8	2023-03-31	08:51:37	08:59:32	08:59:32:443	24	2	PracticeItems_NoThink	PracticeItems_NoThink	0	5	0	0	0	0	5000	1	+	-13	1	Cue39.jpg	-13	1	Target39.jpg	-13
8	2023-03-31	08:51:37	08:59:38	08:59:38:377	24	3	PracticeItems_NoThink	valence	0	5	0	0	20	0	5901	1	I found these images to be...	-16	0	0	0	0	0	0
8	2023-03-31	08:51:37	08:59:40	08:59:40:910	24	4	PracticeItems_NoThink	expectancy	0	1000	0	0	100	0	2494	1	When you saw the <b>object-scene</b>,   to what <b>degree (0-100%)</b> did you expect the <b>unpleasant sound to occur</b>?	-12	0	0	0	0	0	0
8	2023-03-31	08:51:37	08:59:42	08:59:42:909	25	1	Reminder_Objects_CSp	fixation	0	5	1000	0	0	1	995	1	+	-15	0	0	0	0	0	0
8	2023-03-31	08:51:37	08:59:47	08:59:47:927	25	2	Reminder_Objects_CSp	Objects_CSp	0	5	0	0	0	0	5000	3	Object6.jpg	-14	0	0	0	0	0	0
8	2023-03-31	08:51:37	08:59:51	08:59:51:028	25	3	Reminder_Objects_CSp	expectancy_object	0	500	0	0	100	0	3073	1	When you saw the <b>object</b>,   to what <b>degree (0-100%)</b> did you expect the <b>unpleasant sound to occur</b>?	-16	0	0	0	0	0	0
8	2023-03-31	08:51:37	08:59:53	08:59:53:027	26	1	Reminder_NoThink_CSm	fixation	0	5	1500	0	0	1	1495	1	+	-14	0	0	0	0	0	0
8	2023-03-31	08:51:37	08:59:58	08:59:58:045	26	2	Reminder_NoThink_CSm	NoThink_CSm	0	5	0	0	0	0	5000	1	+	-13	2	Cue33.jpg	-13	2	Target33.jpg	-13
8	2023-03-31	08:51:37	09:00:04	09:00:04:628	26	3	Reminder_NoThink_CSm	valence	0	5	0	0	20	0	6532	1	I found these images to be...	-16	0	0	0	0	0	0
8	2023-03-31	08:51:37	09:00:07	09:00:07:696	26	4	Reminder_NoThink_CSm	expectancy	0	1500	0	0	0	0	3027	1	When you saw the <b>object-scene</b>,   to what <b>degree (0-100%)</b> did you expect the <b>unpleasant sound to occur</b>?	-12	0	0	0	0	0	0
8	2023-03-31	08:51:37	09:00:09	09:00:09:695	27	1	Reminder_Think_CSm	fixation	0	5	500	0	0	1	495	1	+	-15	0	0	0	0	0	0
8	2023-03-31	08:51:37	09:00:14	09:00:14:712	27	2	Reminder_Think_CSm	Think_CSm	0	5	0	0	0	0	5000	1	+	-16	1	Cue3.jpg	-16	1	Target3.jpg	-16
8	2023-03-31	08:51:37	09:00:19	09:00:19:146	27	3	Reminder_Think_CSm	valence	0	5	0	0	30	0	4416	1	I found these images to be...	-16	0	0	0	0	0	0
8	2023-03-31	08:51:37	09:00:24	09:00:24:297	27	4	Reminder_Think_CSm	expectancy	0	1000	0	0	0	0	5110	1	When you saw the <b>object-scene</b>,   to what <b>degree (0-100%)</b> did you expect the <b>unpleasant sound to occur</b>?	-12	0	0	0	0	0	0
8	2023-03-31	08:51:37	09:00:26	09:00:26:296	28	1	Reminder_NoThink_CSp	fixation	0	5	1000	0	0	1	995	1	+	-14	0	0	0	0	0	0
8	2023-03-31	08:51:37	09:00:31	09:00:31:313	28	2	Reminder_NoThink_CSp	NoThink_CSp	0	5	0	0	0	0	5000	1	+	-13	6	Cue16.jpg	-13	6	Target16.jpg	-13
8	2023-03-31	08:51:37	09:00:34	09:00:34:863	28	3	Reminder_NoThink_CSp	valence	0	5	0	0	40	0	3526	1	I found these images to be...	-16	0	0	0	0	0	0
8	2023-03-31	08:51:37	09:00:39	09:00:39:114	28	4	Reminder_NoThink_CSp	expectancy	0	1500	0	0	80	0	4184	1	When you saw the <b>object-scene</b>,   to what <b>degree (0-100%)</b> did you expect the <b>unpleasant sound to occur</b>?	-12	0	0	0	0	0	0
8	2023-03-31	08:51:37	09:00:42	09:00:42:096	29	1	Reminder_Objects_CSm	fixation	0	5	1500	0	0	1	1495	1	+	-14	0	0	0	0	0	0
8	2023-03-31	08:51:37	09:00:47	09:00:47:114	29	2	Reminder_Objects_CSm	Objects_CSm	0	5	0	0	0	0	5000	1	Object8.jpg	-14	0	0	0	0	0	0
8	2023-03-31	08:51:37	09:00:52	09:00:52:331	29	3	Reminder_Objects_CSm	expectancy_object	0	1000	0	0	0	0	5166	1	When you saw the <b>object</b>,   to what <b>degree (0-100%)</b> did you expect the <b>unpleasant sound to occur</b>?	-16	0	0	0	0	0	0
8	2023-03-31	08:51:37	09:00:53	09:00:53:814	30	1	Reminder_NoThink_CSp	fixation	0	5	500	0	0	1	495	1	+	-15	0	0	0	0	0	0
8	2023-03-31	08:51:37	09:00:58	09:00:58:834	30	2	Reminder_NoThink_CSp	NoThink_CSp	0	5	0	0	0	0	5000	1	+	-16	2	Cue12.jpg	-16	2	Target12.jpg	-16
8	2023-03-31	08:51:37	09:01:04	09:01:04:649	30	3	Reminder_NoThink_CSp	valence	0	5	0	0	40	0	5793	1	I found these images to be...	-16	0	0	0	0	0	0
8	2023-03-31	08:51:37	09:01:09	09:01:09:265	30	4	Reminder_NoThink_CSp	expectancy	0	500	0	0	80	0	4551	1	When you saw the <b>object-scene</b>,   to what <b>degree (0-100%)</b> did you expect the <b>unpleasant sound to occur</b>?	-11	0	0	0	0	0	0
8	2023-03-31	08:51:37	09:01:10	09:01:10:748	31	1	Reminder_Baseline_CSm	fixation	0	5	1000	0	0	1	995	1	+	-15	0	0	0	0	0	0
8	2023-03-31	08:51:37	09:01:15	09:01:15:766	31	2	Reminder_Baseline_CSm	Baseline_CSm	0	5	0	0	0	0	5000	1	+	-16	2	Cue6.jpg	-16	2	Target6.jpg	-16
8	2023-03-31	08:51:37	09:01:20	09:01:20:499	31	3	Reminder_Baseline_CSm	valence	0	5	0	0	40	0	4714	1	I found these images to be...	-16	0	0	0	0	0	0
8	2023-03-31	08:51:37	09:01:25	09:01:25:350	31	4	Reminder_Baseline_CSm	expectancy	0	1500	0	0	10	0	4804	1	When you saw the <b>object-scene</b>,   to what <b>degree (0-100%)</b> did you expect the <b>unpleasant sound to occur</b>?	-12	0	0	0	0	0	0
8	2023-03-31	08:51:37	09:01:27	09:01:27:849	32	1	Reminder_Think_CSm	fixation	0	5	1000	0	0	1	995	1	+	-14	0	0	0	0	0	0
8	2023-03-31	08:51:37	09:01:32	09:01:32:867	32	2	Reminder_Think_CSm	Think_CSm	0	5	0	0	0	0	5000	1	+	-16	3	Cue9.jpg	-16	3	Target9.jpg	-16
8	2023-03-31	08:51:37	09:01:37	09:01:37:867	32	3	Reminder_Think_CSm	valence	0	5	0	0	40	0	4982	1	I found these images to be...	-16	0	0	0	0	0	0
8	2023-03-31	08:51:37	09:01:41	09:01:41:467	32	4	Reminder_Think_CSm	expectancy	0	500	0	0	0	0	3533	1	When you saw the <b>object-scene</b>,   to what <b>degree (0-100%)</b> did you expect the <b>unpleasant sound to occur</b>?	-10	0	0	0	0	0	0
8	2023-03-31	08:51:37	09:01:43	09:01:43:450	33	1	PracticeItems_Think	fixation	0	5	1500	0	0	1	1495	1	+	-14	0	0	0	0	0	0
8	2023-03-31	08:51:37	09:01:48	09:01:48:471	33	2	PracticeItems_Think	PracticeItems_Think	0	5	0	0	0	0	5000	1	+	-16	1	Cue37.jpg	-16	1	Target37.jpg	-16
8	2023-03-31	08:51:37	09:01:51	09:01:51:919	33	3	PracticeItems_Think	valence	0	5	0	0	30	0	3421	1	I found these images to be...	-16	0	0	0	0	0	0
8	2023-03-31	08:51:37	09:02:00	09:02:00:235	33	4	PracticeItems_Think	expectancy	0	1000	0	0	40	0	8282	1	When you saw the <b>object-scene</b>,   to what <b>degree (0-100%)</b> did you expect the <b>unpleasant sound to occur</b>?	-12	0	0	0	0	0	0
8	2023-03-31	08:51:37	09:02:01	09:02:01:734	34	1	Reminder_Objects_CSm	fixation	0	5	500	0	0	1	495	1	+	-14	0	0	0	0	0	0
8	2023-03-31	08:51:37	09:02:06	09:02:06:752	34	2	Reminder_Objects_CSm	Objects_CSm	0	5	0	0	0	0	5000	2	Object1.jpg	-14	0	0	0	0	0	0
8	2023-03-31	08:51:37	09:02:09	09:02:09:03	34	3	Reminder_Objects_CSm	expectancy_object	0	1500	0	0	0	0	3224	1	When you saw the <b>object</b>,   to what <b>degree (0-100%)</b> did you expect the <b>unpleasant sound to occur</b>?	-16	0	0	0	0	0	0
8	2023-03-31	08:51:37	09:02:11	09:02:11:01	35	1	Reminder_Think_CSp	fixation	0	5	500	0	0	1	495	1	+	-15	0	0	0	0	0	0
8	2023-03-31	08:51:37	09:02:17	09:02:17:020	35	2	Reminder_Think_CSp	Think_CSp	0	5	0	0	0	0	5000	1	+	-14	3	Cue28.jpg	-14	3	Target28.jpg	-14
8	2023-03-31	08:51:37	09:02:23	09:02:23:437	35	3	Reminder_Think_CSp	valence	0	5	0	0	40	0	6389	1	I found these images to be...	-16	0	0	0	0	0	0
8	2023-03-31	08:51:37	09:02:28	09:02:28:854	35	4	Reminder_Think_CSp	expectancy	0	500	0	0	60	0	5371	1	When you saw the <b>object-scene</b>,   to what <b>degree (0-100%)</b> did you expect the <b>unpleasant sound to occur</b>?	-12	0	0	0	0	0	0
8	2023-03-31	08:51:37	09:02:30	09:02:30:853	36	1	Reminder_NoThink_CSm	fixation	0	5	1500	0	0	1	1495	1	+	-15	0	0	0	0	0	0
8	2023-03-31	08:51:37	09:02:35	09:02:35:871	36	2	Reminder_NoThink_CSm	NoThink_CSm	0	5	0	0	0	0	5000	1	+	-14	4	Cue34.jpg	-14	4	Target34.jpg	-14
8	2023-03-31	08:51:37	09:02:40	09:02:40:221	36	3	Reminder_NoThink_CSm	valence	0	5	0	0	20	0	4298	1	I found these images to be...	-16	0	0	0	0	0	0
8	2023-03-31	08:51:37	09:02:43	09:02:43:471	36	4	Reminder_NoThink_CSm	expectancy	0	1500	0	0	0	0	3211	1	When you saw the <b>object-scene</b>,   to what <b>degree (0-100%)</b> did you expect the <b>unpleasant sound to occur</b>?	-9	0	0	0	0	0	0
8	2023-03-31	08:51:37	09:02:45	09:02:45:971	37	1	PracticeItems_Think	fixation	0	5	1000	0	0	1	995	1	+	-15	0	0	0	0	0	0
8	2023-03-31	08:51:37	09:02:50	09:02:50:988	37	2	PracticeItems_Think	PracticeItems_Think	0	5	0	0	0	0	5000	1	+	-16	2	Cue38.jpg	-16	2	Target38.jpg	-16
8	2023-03-31	08:51:37	09:02:55	09:02:55:155	37	3	PracticeItems_Think	valence	0	5	0	0	0	0	4116	1	I found these images to be...	-16	0	0	0	0	0	0
8	2023-03-31	08:51:37	09:03:02	09:03:02:506	37	4	PracticeItems_Think	expectancy	0	1000	0	0	10	0	7309	1	When you saw the <b>object-scene</b>,   to what <b>degree (0-100%)</b> did you expect the <b>unpleasant sound to occur</b>?	-11	0	0	0	0	0	0
8	2023-03-31	08:51:37	09:03:03	09:03:03:04	38	1	Reminder_NoThink_CSm	fixation	0	5	500	0	0	1	495	1	+	-14	0	0	0	0	0	0
8	2023-03-31	08:51:37	09:03:09	09:03:09:023	38	2	Reminder_NoThink_CSm	NoThink_CSm	0	5	0	0	0	0	5000	1	+	-13	6	Cue8.jpg	-13	6	Target8.jpg	-13
8	2023-03-31	08:51:37	09:03:13	09:03:13:789	38	3	Reminder_NoThink_CSm	valence	0	5	0	0	70	0	4746	1	I found these images to be...	-16	0	0	0	0	0	0
8	2023-03-31	08:51:37	09:03:19	09:03:19:490	38	4	Reminder_NoThink_CSm	expectancy	0	500	0	0	20	0	5658	1	When you saw the <b>object-scene</b>,   to what <b>degree (0-100%)</b> did you expect the <b>unpleasant sound to occur</b>?	-10	0	0	0	0	0	0
8	2023-03-31	08:51:37	09:03:20	09:03:20:989	39	1	Reminder_Objects_CSp	fixation	0	5	1000	0	0	1	995	1	+	-15	0	0	0	0	0	0
8	2023-03-31	08:51:37	09:03:26	09:03:26:07	39	2	Reminder_Objects_CSp	Objects_CSp	0	5	0	0	0	0	5000	4	Object4.jpg	-16	0	0	0	0	0	0
8	2023-03-31	08:51:37	09:03:30	09:03:30:191	39	3	Reminder_Objects_CSp	expectancy_object	0	1500	0	0	100	0	4162	1	When you saw the <b>object</b>,   to what <b>degree (0-100%)</b> did you expect the <b>unpleasant sound to occur</b>?	-16	0	0	0	0	0	0
8	2023-03-31	08:51:37	09:03:33	09:03:33:191	40	1	Reminder_Baseline_CSp	fixation	0	5	1500	0	0	1	1495	1	+	-9	0	0	0	0	0	0
8	2023-03-31	08:51:37	09:03:38	09:03:38:210	40	2	Reminder_Baseline_CSp	Baseline_CSp	0	5	0	0	0	0	5000	1	+	-16	2	Cue26.jpg	-16	2	Target26.jpg	-16
8	2023-03-31	08:51:37	09:03:42	09:03:42:291	40	3	Reminder_Baseline_CSp	valence	0	5	0	0	40	0	4033	1	I found these images to be...	-16	0	0	0	0	0	0
8	2023-03-31	08:51:37	09:03:49	09:03:49:092	40	4	Reminder_Baseline_CSp	expectancy	0	1000	0	0	30	0	6765	1	When you saw the <b>object-scene</b>,   to what <b>degree (0-100%)</b> did you expect the <b>unpleasant sound to occur</b>?	-10	0	0	0	0	0	0
8	2023-03-31	08:51:37	09:03:51	09:03:51:091	41	1	Reminder_Objects_CSm	fixation	0	5	1000	0	0	1	995	1	+	-15	0	0	0	0	0	0
8	2023-03-31	08:51:37	09:03:56	09:03:56:108	41	2	Reminder_Objects_CSm	Objects_CSm	0	5	0	0	0	0	5000	3	Object3.jpg	-16	0	0	0	0	0	0
8	2023-03-31	08:51:37	09:04:00	09:04:00:909	41	3	Reminder_Objects_CSm	expectancy_object	0	500	0	0	0	0	4780	1	When you saw the <b>object</b>,   to what <b>degree (0-100%)</b> did you expect the <b>unpleasant sound to occur</b>?	-16	0	0	0	0	0	0
8	2023-03-31	08:51:37	09:04:02	09:04:02:908	42	1	Reminder_NoThink_CSm	fixation	0	5	1500	0	0	1	1495	1	+	-15	0	0	0	0	0	0
8	2023-03-31	08:51:37	09:04:07	09:04:07:926	42	2	Reminder_NoThink_CSm	NoThink_CSm	0	5	0	0	0	0	5000	1	+	-13	3	Cue23.jpg	-13	3	Target23.jpg	-13
8	2023-03-31	08:51:37	09:04:14	09:04:14:344	42	3	Reminder_NoThink_CSm	valence	0	5	0	0	40	0	6387	1	I found these images to be...	-16	0	0	0	0	0	0
8	2023-03-31	08:51:37	09:04:18	09:04:18:826	42	4	Reminder_NoThink_CSm	expectancy	0	1500	0	0	0	0	4417	1	When you saw the <b>object-scene</b>,   to what <b>degree (0-100%)</b> did you expect the <b>unpleasant sound to occur</b>?	-12	0	0	0	0	0	0
8	2023-03-31	08:51:37	09:04:20	09:04:20:809	43	1	Reminder_NoThink_CSp	fixation	0	5	500	0	0	1	495	1	+	-15	0	0	0	0	0	0
8	2023-03-31	08:51:37	09:04:25	09:04:25:827	43	2	Reminder_NoThink_CSp	NoThink_CSp	0	5	0	0	0	0	5000	1	+	-16	3	Cue32.jpg	-16	3	Target32.jpg	-16
8	2023-03-31	08:51:37	09:04:28	09:04:28:861	43	3	Reminder_NoThink_CSp	valence	0	5	0	0	30	0	3005	1	I found these images to be...	-16	0	0	0	0	0	0
8	2023-03-31	08:51:37	09:04:47	09:04:47:579	43	4	Reminder_NoThink_CSp	expectancy	0	1000	0	0	70	0	18675	1	When you saw the <b>object-scene</b>,   to what <b>degree (0-100%)</b> did you expect the <b>unpleasant sound to occur</b>?	-12	0	0	0	0	0	0
8	2023-03-31	08:51:37	09:04:50	09:04:50:077	44	1	Reminder_Think_CSp	fixation	0	5	1500	0	0	1	1495	1	+	-14	0	0	0	0	0	0
8	2023-03-31	08:51:37	09:04:55	09:04:55:096	44	2	Reminder_Think_CSp	Think_CSp	0	5	0	0	0	0	5000	1	+	-14	2	Cue4.jpg	-14	2	Target4.jpg	-14
8	2023-03-31	08:51:37	09:04:59	09:04:59:296	44	3	Reminder_Think_CSp	valence	0	5	0	0	40	0	4169	1	I found these images to be...	-16	0	0	0	0	0	0
8	2023-03-31	08:51:37	09:05:05	09:05:05:846	44	4	Reminder_Think_CSp	expectancy	0	500	0	0	10	0	6504	1	When you saw the <b>object-scene</b>,   to what <b>degree (0-100%)</b> did you expect the <b>unpleasant sound to occur</b>?	-12	0	0	0	0	0	0
8	2023-03-31	08:51:37	09:05:07	09:05:07:345	45	1	Reminder_Baseline_CSm	fixation	0	5	1000	0	0	1	995	1	+	-14	0	0	0	0	0	0
8	2023-03-31	08:51:37	09:05:12	09:05:12:363	45	2	Reminder_Baseline_CSm	Baseline_CSm	0	5	0	0	0	0	5000	1	+	-14	3	Cue35.jpg	-14	3	Target35.jpg	-14
8	2023-03-31	08:51:37	09:05:20	09:05:20:196	45	3	Reminder_Baseline_CSm	valence	0	5	0	0	20	0	7781	1	I found these images to be...	-16	0	0	0	0	0	0
8	2023-03-31	08:51:37	09:05:27	09:05:27:714	45	4	Reminder_Baseline_CSm	expectancy	0	1500	0	0	0	0	7475	1	When you saw the <b>object-scene</b>,   to what <b>degree (0-100%)</b> did you expect the <b>unpleasant sound to occur</b>?	-10	0	0	0	0	0	0
8	2023-03-31	08:51:37	09:05:29	09:05:29:714	46	1	Reminder_Think_CSm	fixation	0	5	500	0	0	1	495	1	+	-15	0	0	0	0	0	0
8	2023-03-31	08:51:37	09:05:34	09:05:34:731	46	2	Reminder_Think_CSm	Think_CSm	0	5	0	0	0	0	5000	1	+	-14	5	Cue27.jpg	-14	5	Target27.jpg	-14
8	2023-03-31	08:51:37	09:05:43	09:05:43:399	46	3	Reminder_Think_CSm	valence	0	5	0	0	30	0	8638	1	I found these images to be...	-16	0	0	0	0	0	0
8	2023-03-31	08:51:37	09:05:50	09:05:50:499	46	4	Reminder_Think_CSm	expectancy	0	500	0	0	4	0	7058	1	When you saw the <b>object-scene</b>,   to what <b>degree (0-100%)</b> did you expect the <b>unpleasant sound to occur</b>?	-12	0	0	0	0	0	0
8	2023-03-31	08:51:37	09:05:51	09:05:51:498	47	1	Reminder_Think_CSp	fixation	0	5	500	0	0	1	495	1	+	-14	0	0	0	0	0	0
8	2023-03-31	08:51:37	09:05:56	09:05:56:515	47	2	Reminder_Think_CSp	Think_CSp	0	5	0	0	0	0	5000	1	+	-16	1	Cue24.jpg	-16	1	Target24.jpg	-16
8	2023-03-31	08:51:37	09:06:00	09:06:00:216	47	3	Reminder_Think_CSp	valence	0	5	0	0	30	0	3677	1	I found these images to be...	-16	0	0	0	0	0	0
8	2023-03-31	08:51:37	09:06:04	09:06:04:816	47	4	Reminder_Think_CSp	expectancy	0	1000	0	0	100	0	4560	1	When you saw the <b>object-scene</b>,   to what <b>degree (0-100%)</b> did you expect the <b>unpleasant sound to occur</b>?	-12	0	0	0	0	0	0
8	2023-03-31	08:51:37	09:06:06	09:06:06:815	48	1	Reminder_Baseline_CSp	fixation	0	5	1000	0	0	1	995	1	+	-15	0	0	0	0	0	0
8	2023-03-31	08:51:37	09:06:11	09:06:11:836	48	2	Reminder_Baseline_CSp	Baseline_CSp	0	5	0	0	0	0	5000	1	+	-11	3	Cue36.jpg	-11	3	Target36.jpg	-11
8	2023-03-31	08:51:37	09:06:16	09:06:16:067	48	3	Reminder_Baseline_CSp	valence	0	5	0	0	20	0	4215	1	I found these images to be...	-16	0	0	0	0	0	0
8	2023-03-31	08:51:37	09:06:18	09:06:18:550	48	4	Reminder_Baseline_CSp	expectancy	0	1500	0	0	100	0	2445	1	When you saw the <b>object-scene</b>,   to what <b>degree (0-100%)</b> did you expect the <b>unpleasant sound to occur</b>?	-12	0	0	0	0	0	0
8	2023-03-31	08:51:37	09:06:21	09:06:21:549	49	1	Reminder_Baseline_CSp	fixation	0	5	1500	0	0	1	1495	1	+	-14	0	0	0	0	0	0
8	2023-03-31	08:51:37	09:06:26	09:06:26:567	49	2	Reminder_Baseline_CSp	Baseline_CSp	0	5	0	0	0	0	5000	1	+	-14	5	Cue13.jpg	-14	5	Target13.jpg	-14
8	2023-03-31	08:51:37	09:06:31	09:06:31:935	49	3	Reminder_Baseline_CSp	valence	0	5	0	0	30	0	5345	1	I found these images to be...	-16	0	0	0	0	0	0
8	2023-03-31	08:51:37	09:06:35	09:06:35:384	49	4	Reminder_Baseline_CSp	expectancy	0	500	0	0	50	0	3402	1	When you saw the <b>object-scene</b>,   to what <b>degree (0-100%)</b> did you expect the <b>unpleasant sound to occur</b>?	-12	0	0	0	0	0	0
8	2023-03-31	08:51:37	09:11:17	09:11:17:502	2	1	Practice_Think	fixation	0	5	1500	0	0	1	1495	1	+	-8	0	0	0	0	0	0
8	2023-03-31	08:51:37	09:11:18	09:11:18:520	2	2	Practice_Think	Think	0	5	0	0	0	0	1000	1	THINK	-16	0	0	0	0	0	0
8	2023-03-31	08:51:37	09:11:23	09:11:23:536	2	3	Practice_Think	ThinkCue	0	5	0	0	0	1	5000	2	Cue38.jpg	-16	0	0	0	0	0	0
8	2023-03-31	08:51:37	09:11:24	09:11:24:729	2	4	Practice_Think	Intrusion	0	1500	3000	0	4	1	1159	1	How <b>often</b> did you <b>think</b> about the <b>scene</b>?   <center><br><b>NEVER (1)    BRIEFLY (2)   OFTEN (3) </b>	-14	0	0	0	0	0	0
8	2023-03-31	08:51:37	09:11:27	09:11:27:540	3	1	Practice_NoThink	fixation	0	5	1000	0	0	1	995	1	+	-16	0	0	0	0	0	0
8	2023-03-31	08:51:37	09:11:28	09:11:28:553	3	2	Practice_NoThink	NoThink	0	5	0	0	0	0	1000	1	DON'T THINK	-16	0	0	0	0	0	0
8	2023-03-31	08:51:37	09:11:33	09:11:33:570	3	3	Practice_NoThink	NoThinkCue	0	5	0	0	0	1	5000	1	Cue39.jpg	-16	0	0	0	0	0	0
8	2023-03-31	08:51:37	09:11:34	09:11:34:729	3	4	Practice_NoThink	Intrusion	0	1000	3000	0	3	1	1141	1	How <b>often</b> did you <b>think</b> about the <b>scene</b>?   <center><br><b>NEVER (1)    BRIEFLY (2)   OFTEN (3) </b>	-16	0	0	0	0	0	0
8	2023-03-31	08:51:37	09:11:37	09:11:37:074	4	1	Practice_Think	fixation	0	5	500	0	0	1	495	1	+	-16	0	0	0	0	0	0
8	2023-03-31	08:51:37	09:11:38	09:11:38:087	4	2	Practice_Think	Think	0	5	0	0	0	0	1000	1	THINK	-16	0	0	0	0	0	0
8	2023-03-31	08:51:37	09:11:43	09:11:43:104	4	3	Practice_Think	ThinkCue	0	5	0	0	0	1	5000	1	Cue37.jpg	-16	0	0	0	0	0	0
8	2023-03-31	08:51:37	09:11:44	09:11:44:697	4	4	Practice_Think	Intrusion	0	500	3000	0	4	1	1575	1	How <b>often</b> did you <b>think</b> about the <b>scene</b>?   <center><br><b>NEVER (1)    BRIEFLY (2)   OFTEN (3) </b>	-16	0	0	0	0	0	0
8	2023-03-31	08:51:37	09:11:47	09:11:47:608	5	1	Practice_NoThink	fixation	0	5	1500	0	0	1	1495	1	+	-16	0	0	0	0	0	0
8	2023-03-31	08:51:37	09:11:48	09:11:48:621	5	2	Practice_NoThink	NoThink	0	5	0	0	0	0	1000	1	DON'T THINK	-16	0	0	0	0	0	0
8	2023-03-31	08:51:37	09:11:53	09:11:53:638	5	3	Practice_NoThink	NoThinkCue	0	5	0	0	0	1	5000	2	Cue40.jpg	-16	0	0	0	0	0	0
8	2023-03-31	08:51:37	09:11:54	09:11:54:409	5	4	Practice_NoThink	Intrusion	0	500	3000	0	3	1	753	1	How <b>often</b> did you <b>think</b> about the <b>scene</b>?   <center><br><b>NEVER (1)    BRIEFLY (2)   OFTEN (3) </b>	-16	0	0	0	0	0	0
8	2023-03-31	08:51:37	09:14:44	09:14:44:897	6	1	Practice_Betweenblocks1	Practice_Betweenblocks1	0	5	0	0	57	1	167225	1	<center><br><br><br><br>This is the end of the first practice round. <br><br>There will be 2 more practice rounds.  <br><br> Please await further instruction from the experimenter.	-16	0	0	0	0	0	0
8	2023-03-31	08:51:37	09:14:44	09:14:44:399	7	1	Practice_Think	fixation	0	5	500	0	0	1	495	1	+	-8	0	0	0	0	0	0
8	2023-03-31	08:51:37	09:14:45	09:14:45:415	7	2	Practice_Think	Think	0	5	0	0	0	0	1000	1	THINK	-16	0	0	0	0	0	0
8	2023-03-31	08:51:37	09:14:50	09:14:50:431	7	3	Practice_Think	ThinkCue	0	5	0	0	0	1	5000	2	Cue38.jpg	-16	0	0	0	0	0	0
8	2023-03-31	08:51:37	09:14:51	09:14:51:129	7	4	Practice_Think	Intrusion	0	1000	3000	0	4	1	680	1	How <b>often</b> did you <b>think</b> about the <b>scene</b>?   <center><br><b>NEVER (1)    BRIEFLY (2)   OFTEN (3) </b>	-16	0	0	0	0	0	0
8	2023-03-31	08:51:37	09:14:54	09:14:54:435	8	1	Practice_NoThink	fixation	0	5	1000	0	0	1	995	1	+	-16	0	0	0	0	0	0
8	2023-03-31	08:51:37	09:14:55	09:14:55:449	8	2	Practice_NoThink	NoThink	0	5	0	0	0	0	1000	1	DON'T THINK	-16	0	0	0	0	0	0
8	2023-03-31	08:51:37	09:15:00	09:15:00:465	8	3	Practice_NoThink	NoThinkCue	0	5	0	0	0	1	5000	1	Cue39.jpg	-16	0	0	0	0	0	0
8	2023-03-31	08:51:37	09:15:01	09:15:01:337	8	4	Practice_NoThink	Intrusion	0	1500	3000	0	2	1	854	1	How <b>often</b> did you <b>think</b> about the <b>scene</b>?   <center><br><b>NEVER (1)    BRIEFLY (2)   OFTEN (3) </b>	-16	0	0	0	0	0	0
8	2023-03-31	08:51:37	09:15:05	09:15:05:969	9	1	Practice_NoThink	fixation	0	5	1500	0	0	1	1495	1	+	-16	0	0	0	0	0	0
8	2023-03-31	08:51:37	09:15:06	09:15:06:983	9	2	Practice_NoThink	NoThink	0	5	0	0	0	0	1000	1	DON'T THINK	-16	0	0	0	0	0	0
8	2023-03-31	08:51:37	09:15:11	09:15:11:999	9	3	Practice_NoThink	NoThinkCue	0	5	0	0	0	1	5000	2	Cue40.jpg	-16	0	0	0	0	0	0
8	2023-03-31	08:51:37	09:15:11	09:15:11:625	9	4	Practice_NoThink	Intrusion	0	1500	3000	0	2	1	608	1	How <b>often</b> did you <b>think</b> about the <b>scene</b>?   <center><br><b>NEVER (1)    BRIEFLY (2)   OFTEN (3) </b>	-16	0	0	0	0	0	0
8	2023-03-31	08:51:37	09:15:15	09:15:15:03	10	1	Practice_Think	fixation	0	5	1000	0	0	1	995	1	+	-16	0	0	0	0	0	0
8	2023-03-31	08:51:37	09:15:16	09:15:16:016	10	2	Practice_Think	Think	0	5	0	0	0	0	1000	1	THINK	-16	0	0	0	0	0	0
8	2023-03-31	08:51:37	09:15:21	09:15:21:033	10	3	Practice_Think	ThinkCue	0	5	0	0	0	1	5000	1	Cue37.jpg	-16	0	0	0	0	0	0
8	2023-03-31	08:51:37	09:15:22	09:15:22:521	10	4	Practice_Think	Intrusion	0	500	3000	0	4	1	1470	1	How <b>often</b> did you <b>think</b> about the <b>scene</b>?   <center><br><b>NEVER (1)    BRIEFLY (2)   OFTEN (3) </b>	-16	0	0	0	0	0	0
8	2023-03-31	08:51:37	09:15:30	09:15:30:361	11	1	Practice_Betweenblocks2	Practice_Betweenblocks2	0	5	0	0	57	1	6277	1	<center><br><br><br><br>This is the end of the second practice round. <br><br>There will be 1 more practice round.  <br><br> Please await further instruction from the experimenter.	-6	0	0	0	0	0	0
8	2023-03-31	08:51:37	09:15:31	09:15:31:862	12	1	Practice_NoThink	fixation	0	5	500	0	0	1	495	1	+	-8	0	0	0	0	0	0
8	2023-03-31	08:51:37	09:15:32	09:15:32:884	12	2	Practice_NoThink	NoThink	0	5	0	0	0	0	1000	1	DON'T THINK	-8	0	0	0	0	0	0
8	2023-03-31	08:51:37	09:15:37	09:15:37:901	12	3	Practice_NoThink	NoThinkCue	0	5	0	0	0	1	5000	1	Cue39.jpg	-16	0	0	0	0	0	0
8	2023-03-31	08:51:37	09:15:37	09:15:37:625	12	4	Practice_NoThink	Intrusion	0	1000	3000	0	2	1	707	1	How <b>often</b> did you <b>think</b> about the <b>scene</b>?   <center><br><b>NEVER (1)    BRIEFLY (2)   OFTEN (3) </b>	-16	0	0	0	0	0	0
8	2023-03-31	08:51:37	09:15:41	09:15:41:405	13	1	Practice_Think	fixation	0	5	1500	0	0	1	1495	1	+	-16	0	0	0	0	0	0
8	2023-03-31	08:51:37	09:15:42	09:15:42:418	13	2	Practice_Think	Think	0	5	0	0	0	0	1000	1	THINK	-16	0	0	0	0	0	0
8	2023-03-31	08:51:37	09:15:47	09:15:47:434	13	3	Practice_Think	ThinkCue	0	5	0	0	0	1	5000	2	Cue38.jpg	-16	0	0	0	0	0	0
8	2023-03-31	08:51:37	09:15:49	09:15:49:942	13	4	Practice_Think	Intrusion	0	1500	3000	0	0	0	1500	1	How <b>often</b> did you <b>think</b> about the <b>scene</b>?   <center><br><b>NEVER (1)    BRIEFLY (2)   OFTEN (3) </b>	-16	0	0	0	0	0	0
8	2023-03-31	08:51:37	09:15:51	09:15:51:938	14	1	Practice_Think	fixation	0	5	500	0	0	1	495	1	+	-8	0	0	0	0	0	0
8	2023-03-31	08:51:37	09:15:52	09:15:52:952	14	2	Practice_Think	Think	0	5	0	0	0	0	1000	1	THINK	-16	0	0	0	0	0	0
8	2023-03-31	08:51:37	09:15:57	09:15:57:969	14	3	Practice_Think	ThinkCue	0	5	0	0	0	1	5000	1	Cue37.jpg	-16	0	0	0	0	0	0
8	2023-03-31	08:51:37	09:15:58	09:15:58:961	14	4	Practice_Think	Intrusion	0	1000	3000	0	4	1	975	1	How <b>often</b> did you <b>think</b> about the <b>scene</b>?   <center><br><b>NEVER (1)    BRIEFLY (2)   OFTEN (3) </b>	-16	0	0	0	0	0	0
8	2023-03-31	08:51:37	09:16:01	09:16:01:972	15	1	Practice_NoThink	fixation	0	5	1000	0	0	1	995	1	+	-16	0	0	0	0	0	0
8	2023-03-31	08:51:37	09:16:02	09:16:02:986	15	2	Practice_NoThink	NoThink	0	5	0	0	0	0	1000	1	DON'T THINK	-16	0	0	0	0	0	0
8	2023-03-31	08:51:37	09:16:07	09:16:07:02	15	3	Practice_NoThink	NoThinkCue	0	5	0	0	0	1	5000	2	Cue40.jpg	-16	0	0	0	0	0	0
8	2023-03-31	08:51:37	09:16:07	09:16:07:721	15	4	Practice_NoThink	Intrusion	0	500	3000	0	2	1	701	1	How <b>often</b> did you <b>think</b> about the <b>scene</b>?   <center><br><b>NEVER (1)    BRIEFLY (2)   OFTEN (3) </b>	-16	0	0	0	0	0	0
8	2023-03-31	08:51:37	09:18:29	09:18:29:501	2	1	TNT_NoThink_CSp	fixation	0	5	500	0	0	1	495	1	+	-8	0	0	0	0	0	0
8	2023-03-31	08:51:37	09:18:30	09:18:30:519	2	2	TNT_NoThink_CSp	NoThink	0	5	0	0	0	0	1000	1	DON'T THINK	-16	0	0	0	0	0	0
8	2023-03-31	08:51:37	09:18:35	09:18:35:536	2	3	TNT_NoThink_CSp	TNT_NoThink_CSp	0	5	0	0	0	0	5000	3	Cue32.jpg	-16	0	0	0	0	0	0
8	2023-03-31	08:51:37	09:18:36	09:18:36:168	2	4	TNT_NoThink_CSp	Intrusion	0	1500	3000	0	3	1	615	1	How <b>often</b> did you <b>think</b> about the <b>scene</b>?   <center><br><b>NEVER (1)    BRIEFLY (2)   OFTEN (3) </b>	-16	0	0	0	0	0	0
8	2023-03-31	08:51:37	09:18:39	09:18:39:540	3	1	TNT_Think_CSp	fixation	0	5	1000	0	0	1	995	1	+	-16	0	0	0	0	0	0
8	2023-03-31	08:51:37	09:18:40	09:18:40:553	3	2	TNT_Think_CSp	Think	0	5	0	0	0	0	1000	1	THINK	-16	0	0	0	0	0	0
8	2023-03-31	08:51:37	09:18:45	09:18:45:570	3	3	TNT_Think_CSp	TNT_Think_CSp	0	5	0	0	0	0	5000	1	Cue24.jpg	-16	0	0	0	0	0	0
8	2023-03-31	08:51:37	09:18:46	09:18:46:632	3	4	TNT_Think_CSp	Intrusion	0	1000	3000	0	4	1	1045	1	How <b>often</b> did you <b>think</b> about the <b>scene</b>?   <center><br><b>NEVER (1)    BRIEFLY (2)   OFTEN (3) </b>	-16	0	0	0	0	0	0
8	2023-03-31	08:51:37	09:18:50	09:18:50:074	4	1	TNT_NoThink_CSm	fixation	0	5	1500	0	0	1	1495	1	+	-16	0	0	0	0	0	0
8	2023-03-31	08:51:37	09:18:51	09:18:51:087	4	2	TNT_NoThink_CSm	NoThink	0	5	0	0	0	0	1000	1	DON'T THINK	-16	0	0	0	0	0	0
8	2023-03-31	08:51:37	09:18:56	09:18:56:103	4	3	TNT_NoThink_CSm	TNT_NoThink_CSm	0	5	0	0	0	0	5000	2	Cue33.jpg	-16	0	0	0	0	0	0
8	2023-03-31	08:51:37	09:18:56	09:18:56:616	4	4	TNT_NoThink_CSm	Intrusion	0	500	3000	0	2	1	495	1	How <b>often</b> did you <b>think</b> about the <b>scene</b>?   <center><br><b>NEVER (1)    BRIEFLY (2)   OFTEN (3) </b>	-16	0	0	0	0	0	0
8	2023-03-31	08:51:37	09:19:00	09:19:00:607	5	1	TNT_NoThink_CSp	fixation	0	5	1500	0	0	1	1495	1	+	-8	0	0	0	0	0	0
8	2023-03-31	08:51:37	09:19:01	09:19:01:621	5	2	TNT_NoThink_CSp	NoThink	0	5	0	0	0	0	1000	1	DON'T THINK	-16	0	0	0	0	0	0
8	2023-03-31	08:51:37	09:19:06	09:19:06:637	5	3	TNT_NoThink_CSp	TNT_NoThink_CSp	0	5	0	0	0	0	5000	5	Cue1.jpg	-16	0	0	0	0	0	0
8	2023-03-31	08:51:37	09:19:07	09:19:07:144	5	4	TNT_NoThink_CSp	Intrusion	0	500	3000	0	2	1	489	1	How <b>often</b> did you <b>think</b> about the <b>scene</b>?   <center><br><b>NEVER (1)    BRIEFLY (2)   OFTEN (3) </b>	-16	0	0	0	0	0	0
8	2023-03-31	08:51:37	09:19:10	09:19:10:141	6	1	TNT_Think_CSp	fixation	0	5	500	0	0	1	495	1	+	-8	0	0	0	0	0	0
8	2023-03-31	08:51:37	09:19:11	09:19:11:154	6	2	TNT_Think_CSp	Think	0	5	0	0	0	0	1000	1	THINK	-16	0	0	0	0	0	0
8	2023-03-31	08:51:37	09:19:16	09:19:16:172	6	3	TNT_Think_CSp	TNT_Think_CSp	0	5	0	0	0	0	5000	6	Cue21.jpg	-16	0	0	0	0	0	0
8	2023-03-31	08:51:37	09:19:17	09:19:17:096	6	4	TNT_Think_CSp	Intrusion	0	1000	3000	0	4	1	907	1	How <b>often</b> did you <b>think</b> about the <b>scene</b>?   <center><br><b>NEVER (1)    BRIEFLY (2)   OFTEN (3) </b>	-16	0	0	0	0	0	0
8	2023-03-31	08:51:37	09:19:20	09:19:20:175	7	1	TNT_Think_CSm	fixation	0	5	1000	0	0	1	995	1	+	-16	0	0	0	0	0	0
8	2023-03-31	08:51:37	09:19:21	09:19:21:188	7	2	TNT_Think_CSm	Think	0	5	0	0	0	0	1000	1	THINK	-16	0	0	0	0	0	0
8	2023-03-31	08:51:37	09:19:26	09:19:26:205	7	3	TNT_Think_CSm	TNT_Think_CSm	0	5	0	0	0	0	5000	2	Cue25.jpg	-16	0	0	0	0	0	0
8	2023-03-31	08:51:37	09:19:27	09:19:27:224	7	4	TNT_Think_CSm	Intrusion	0	1500	3000	0	4	1	1001	1	How <b>often</b> did you <b>think</b> about the <b>scene</b>?   <center><br><b>NEVER (1)    BRIEFLY (2)   OFTEN (3) </b>	-16	0	0	0	0	0	0
8	2023-03-31	08:51:37	09:19:29	09:19:29:709	8	1	TNT_NoThink_CSp	fixation	0	5	500	0	0	1	495	1	+	-16	0	0	0	0	0	0
8	2023-03-31	08:51:37	09:19:30	09:19:30:723	8	2	TNT_NoThink_CSp	NoThink	0	5	0	0	0	0	1000	1	DON'T THINK	-16	0	0	0	0	0	0
8	2023-03-31	08:51:37	09:19:35	09:19:35:739	8	3	TNT_NoThink_CSp	TNT_NoThink_CSp	0	5	0	0	0	0	5000	1	Cue22.jpg	-16	0	0	0	0	0	0
8	2023-03-31	08:51:37	09:19:36	09:19:36:296	8	4	TNT_NoThink_CSp	Intrusion	0	500	3000	0	3	1	539	1	How <b>often</b> did you <b>think</b> about the <b>scene</b>?   <center><br><b>NEVER (1)    BRIEFLY (2)   OFTEN (3) </b>	-16	0	0	0	0	0	0
8	2023-03-31	08:51:37	09:19:40	09:19:40:243	9	1	TNT_NoThink_CSm	fixation	0	5	1500	0	0	1	1495	1	+	-16	0	0	0	0	0	0
8	2023-03-31	08:51:37	09:19:41	09:19:41:257	9	2	TNT_NoThink_CSm	NoThink	0	5	0	0	0	0	1000	1	DON'T THINK	-16	0	0	0	0	0	0
8	2023-03-31	08:51:37	09:19:46	09:19:46:273	9	3	TNT_NoThink_CSm	TNT_NoThink_CSm	0	5	0	0	0	0	5000	3	Cue23.jpg	-16	0	0	0	0	0	0
8	2023-03-31	08:51:37	09:19:47	09:19:47:920	9	4	TNT_NoThink_CSm	Intrusion	0	1000	3000	0	3	1	629	1	How <b>often</b> did you <b>think</b> about the <b>scene</b>?   <center><br><b>NEVER (1)    BRIEFLY (2)   OFTEN (3) </b>	-16	0	0	0	0	0	0
8	2023-03-31	08:51:37	09:19:50	09:19:50:277	10	1	TNT_Think_CSp	fixation	0	5	1000	0	0	1	995	1	+	-16	0	0	0	0	0	0
8	2023-03-31	08:51:37	09:19:51	09:19:51:290	10	2	TNT_Think_CSp	Think	0	5	0	0	0	0	1000	1	THINK	-16	0	0	0	0	0	0
8	2023-03-31	08:51:37	09:19:56	09:19:56:307	10	3	TNT_Think_CSp	TNT_Think_CSp	0	5	0	0	0	0	5000	5	Cue17.jpg	-16	0	0	0	0	0	0
8	2023-03-31	08:51:37	09:19:57	09:19:57:176	10	4	TNT_Think_CSp	Intrusion	0	1500	3000	0	4	1	851	1	How <b>often</b> did you <b>think</b> about the <b>scene</b>?   <center><br><b>NEVER (1)    BRIEFLY (2)   OFTEN (3) </b>	-16	0	0	0	0	0	0
8	2023-03-31	08:51:37	09:20:00	09:20:00:811	11	1	TNT_Object_CSm	fixation	0	5	1500	0	0	1	1495	1	+	-16	0	0	0	0	0	0
8	2023-03-31	08:51:37	09:20:01	09:20:01:824	11	2	TNT_Object_CSm	Passive	0	5	0	0	0	0	1000	1	VIEW	-16	0	0	0	0	0	0
8	2023-03-31	08:51:37	09:20:06	09:20:06:841	11	3	TNT_Object_CSm	TNT_Object_CSm	0	500	0	0	0	0	5000	4	Object2.jpg	-16	0	0	0	0	0	0
8	2023-03-31	08:51:37	09:20:07	09:20:07:841	12	1	TNT_NoThink_CSm	fixation	0	5	500	0	0	1	495	1	+	-8	0	0	0	0	0	0
8	2023-03-31	08:51:37	09:20:08	09:20:08:858	12	2	TNT_NoThink_CSm	NoThink	0	5	0	0	0	0	1000	1	DON'T THINK	-16	0	0	0	0	0	0
8	2023-03-31	08:51:37	09:20:13	09:20:13:875	12	3	TNT_NoThink_CSm	TNT_NoThink_CSm	0	5	0	0	0	0	5000	4	Cue34.jpg	-16	0	0	0	0	0	0
8	2023-03-31	08:51:37	09:20:14	09:20:14:408	12	4	TNT_NoThink_CSm	Intrusion	0	500	3000	0	2	1	516	1	How <b>often</b> did you <b>think</b> about the <b>scene</b>?   <center><br><b>NEVER (1)    BRIEFLY (2)   OFTEN (3) </b>	-16	0	0	0	0	0	0
8	2023-03-31	08:51:37	09:20:17	09:20:17:879	13	1	TNT_Think_CSm	fixation	0	5	1000	0	0	1	995	1	+	-16	0	0	0	0	0	0
8	2023-03-31	08:51:37	09:20:18	09:20:18:892	13	2	TNT_Think_CSm	Think	0	5	0	0	0	0	1000	1	THINK	-16	0	0	0	0	0	0
8	2023-03-31	08:51:37	09:20:23	09:20:23:909	13	3	TNT_Think_CSm	TNT_Think_CSm	0	5	0	0	0	0	5000	4	Cue30.jpg	-16	0	0	0	0	0	0
8	2023-03-31	08:51:37	09:20:24	09:20:24:664	13	4	TNT_Think_CSm	Intrusion	0	1000	3000	0	4	1	738	1	How <b>often</b> did you <b>think</b> about the <b>scene</b>?   <center><br><b>NEVER (1)    BRIEFLY (2)   OFTEN (3) </b>	-16	0	0	0	0	0	0
8	2023-03-31	08:51:37	09:20:27	09:20:27:413	14	1	TNT_Object_CSp	fixation	0	5	500	0	0	1	495	1	+	-16	0	0	0	0	0	0
8	2023-03-31	08:51:37	09:20:28	09:20:28:426	14	2	TNT_Object_CSp	Passive	0	5	0	0	0	0	1000	1	VIEW	-16	0	0	0	0	0	0
8	2023-03-31	08:51:37	09:20:33	09:20:33:442	14	3	TNT_Object_CSp	TNT_Object_CSp	0	1000	0	0	0	0	5000	2	Object7.jpg	-16	0	0	0	0	0	0
8	2023-03-31	08:51:37	09:20:35	09:20:35:442	15	1	TNT_NoThink_CSp	fixation	0	5	1000	0	0	1	995	1	+	-8	0	0	0	0	0	0
8	2023-03-31	08:51:37	09:20:36	09:20:36:460	15	2	TNT_NoThink_CSp	NoThink	0	5	0	0	0	0	1000	1	DON'T THINK	-16	0	0	0	0	0	0
8	2023-03-31	08:51:37	09:20:41	09:20:41:476	15	3	TNT_NoThink_CSp	TNT_NoThink_CSp	0	5	0	0	0	0	5000	4	Cue29.jpg	-16	0	0	0	0	0	0
8	2023-03-31	08:51:37	09:20:42	09:20:42:976	15	4	TNT_NoThink_CSp	Intrusion	0	1500	3000	0	2	1	482	1	How <b>often</b> did you <b>think</b> about the <b>scene</b>?   <center><br><b>NEVER (1)    BRIEFLY (2)   OFTEN (3) </b>	-16	0	0	0	0	0	0
8	2023-03-31	08:51:37	09:20:46	09:20:46:980	16	1	TNT_Think_CSm	fixation	0	5	1500	0	0	1	1495	1	+	-16	0	0	0	0	0	0
8	2023-03-31	08:51:37	09:20:47	09:20:47:993	16	2	TNT_Think_CSm	Think	0	5	0	0	0	0	1000	1	THINK	-16	0	0	0	0	0	0
8	2023-03-31	08:51:37	09:20:52	09:20:52:010	16	3	TNT_Think_CSm	TNT_Think_CSm	0	5	0	0	0	0	5000	1	Cue3.jpg	-16	0	0	0	0	0	0
8	2023-03-31	08:51:37	09:20:52	09:20:52:904	16	4	TNT_Think_CSm	Intrusion	0	1000	3000	0	4	1	876	1	How <b>often</b> did you <b>think</b> about the <b>scene</b>?   <center><br><b>NEVER (1)    BRIEFLY (2)   OFTEN (3) </b>	-16	0	0	0	0	0	0
8	2023-03-31	08:51:37	09:20:56	09:20:56:514	17	1	TNT_NoThink_CSm	fixation	0	5	1500	0	0	1	1495	1	+	-16	0	0	0	0	0	0
8	2023-03-31	08:51:37	09:20:57	09:20:57:527	17	2	TNT_NoThink_CSm	NoThink	0	5	0	0	0	0	1000	1	DON'T THINK	-16	0	0	0	0	0	0
8	2023-03-31	08:51:37	09:21:02	09:21:02:544	17	3	TNT_NoThink_CSm	TNT_NoThink_CSm	0	5	0	0	0	0	5000	5	Cue7.jpg	-16	0	0	0	0	0	0
8	2023-03-31	08:51:37	09:21:03	09:21:03:032	17	4	TNT_NoThink_CSm	Intrusion	0	1500	3000	0	3	1	470	1	How <b>often</b> did you <b>think</b> about the <b>scene</b>?   <center><br><b>NEVER (1)    BRIEFLY (2)   OFTEN (3) </b>	-16	0	0	0	0	0	0
8	2023-03-31	08:51:37	09:21:06	09:21:06:048	18	1	TNT_Object_CSp	fixation	0	5	500	0	0	1	495	1	+	-16	0	0	0	0	0	0
8	2023-03-31	08:51:37	09:21:07	09:21:07:061	18	2	TNT_Object_CSp	Passive	0	5	0	0	0	0	1000	1	VIEW	-16	0	0	0	0	0	0
8	2023-03-31	08:51:37	09:21:12	09:21:12:078	18	3	TNT_Object_CSp	TNT_Object_CSp	0	500	0	0	0	0	5000	3	Object6.jpg	-16	0	0	0	0	0	0
8	2023-03-31	08:51:37	09:21:13	09:21:13:577	19	1	TNT_NoThink_CSm	fixation	0	5	1000	0	0	1	995	1	+	-8	0	0	0	0	0	0
8	2023-03-31	08:51:37	09:21:14	09:21:14:595	19	2	TNT_NoThink_CSm	NoThink	0	5	0	0	0	0	1000	1	DON'T THINK	-16	0	0	0	0	0	0
8	2023-03-31	08:51:37	09:21:19	09:21:19:612	19	3	TNT_NoThink_CSm	TNT_NoThink_CSm	0	5	0	0	0	0	5000	6	Cue8.jpg	-16	0	0	0	0	0	0
8	2023-03-31	08:51:37	09:21:20	09:21:20:120	19	4	TNT_NoThink_CSm	Intrusion	0	500	3000	0	2	1	491	1	How <b>often</b> did you <b>think</b> about the <b>scene</b>?   <center><br><b>NEVER (1)    BRIEFLY (2)   OFTEN (3) </b>	-16	0	0	0	0	0	0
8	2023-03-31	08:51:37	09:21:23	09:21:23:116	20	1	TNT_Think_CSp	fixation	0	5	500	0	0	1	495	1	+	-8	0	0	0	0	0	0
8	2023-03-31	08:51:37	09:21:24	09:21:24:129	20	2	TNT_Think_CSp	Think	0	5	0	0	0	0	1000	1	THINK	-16	0	0	0	0	0	0
8	2023-03-31	08:51:37	09:21:29	09:21:29:146	20	3	TNT_Think_CSp	TNT_Think_CSp	0	5	0	0	0	0	5000	2	Cue4.jpg	-16	0	0	0	0	0	0
8	2023-03-31	08:51:37	09:21:30	09:21:30:056	20	4	TNT_Think_CSp	Intrusion	0	1000	3000	0	4	1	893	1	How <b>often</b> did you <b>think</b> about the <b>scene</b>?   <center><br><b>NEVER (1)    BRIEFLY (2)   OFTEN (3) </b>	-16	0	0	0	0	0	0
8	2023-03-31	08:51:37	09:21:33	09:21:33:650	21	1	TNT_Think_CSp	fixation	0	5	1500	0	0	1	1495	1	+	-16	0	0	0	0	0	0
8	2023-03-31	08:51:37	09:21:34	09:21:34:663	21	2	TNT_Think_CSp	Think	0	5	0	0	0	0	1000	1	THINK	-16	0	0	0	0	0	0
8	2023-03-31	08:51:37	09:21:39	09:21:39:679	21	3	TNT_Think_CSp	TNT_Think_CSp	0	5	0	0	0	0	5000	3	Cue28.jpg	-16	0	0	0	0	0	0
8	2023-03-31	08:51:37	09:21:41	09:21:41:936	21	4	TNT_Think_CSp	Intrusion	0	500	3000	0	4	1	1239	1	How <b>often</b> did you <b>think</b> about the <b>scene</b>?   <center><br><b>NEVER (1)    BRIEFLY (2)   OFTEN (3) </b>	-16	0	0	0	0	0	0
8	2023-03-31	08:51:37	09:21:43	09:21:43:683	22	1	TNT_NoThink_CSp	fixation	0	5	1000	0	0	1	995	1	+	-16	0	0	0	0	0	0
8	2023-03-31	08:51:37	09:21:44	09:21:44:697	22	2	TNT_NoThink_CSp	NoThink	0	5	0	0	0	0	1000	1	DON'T THINK	-16	0	0	0	0	0	0
8	2023-03-31	08:51:37	09:21:49	09:21:49:713	22	3	TNT_NoThink_CSp	TNT_NoThink_CSp	0	5	0	0	0	0	5000	2	Cue12.jpg	-16	0	0	0	0	0	0
8	2023-03-31	08:51:37	09:21:50	09:21:50:376	22	4	TNT_NoThink_CSp	Intrusion	0	1500	3000	0	2	1	645	1	How <b>often</b> did you <b>think</b> about the <b>scene</b>?   <center><br><b>NEVER (1)    BRIEFLY (2)   OFTEN (3) </b>	-16	0	0	0	0	0	0
8	2023-03-31	08:51:37	09:21:54	09:21:54:217	23	1	TNT_Object_CSm	fixation	0	5	1500	0	0	1	1495	1	+	-16	0	0	0	0	0	0
8	2023-03-31	08:51:37	09:21:55	09:21:55:231	23	2	TNT_Object_CSm	Passive	0	5	0	0	0	0	1000	1	VIEW	-16	0	0	0	0	0	0
8	2023-03-31	08:51:37	09:22:00	09:22:00:247	23	3	TNT_Object_CSm	TNT_Object_CSm	0	1500	0	0	0	0	5000	2	Object1.jpg	-16	0	0	0	0	0	0
8	2023-03-31	08:51:37	09:22:02	09:22:02:247	24	1	TNT_NoThink_CSm	fixation	0	5	500	0	0	1	495	1	+	-8	0	0	0	0	0	0
8	2023-03-31	08:51:37	09:22:03	09:22:03:264	24	2	TNT_NoThink_CSm	NoThink	0	5	0	0	0	0	1000	1	DON'T THINK	-16	0	0	0	0	0	0
8	2023-03-31	08:51:37	09:22:08	09:22:08:281	24	3	TNT_NoThink_CSm	TNT_NoThink_CSm	0	5	0	0	0	0	5000	1	Cue11.jpg	-16	0	0	0	0	0	0
8	2023-03-31	08:51:37	09:22:09	09:22:09:984	24	4	TNT_NoThink_CSm	Intrusion	0	500	3000	0	3	1	685	1	How <b>often</b> did you <b>think</b> about the <b>scene</b>?   <center><br><b>NEVER (1)    BRIEFLY (2)   OFTEN (3) </b>	-16	0	0	0	0	0	0
8	2023-03-31	08:51:37	09:22:12	09:22:12:285	25	1	TNT_Think_CSp	fixation	0	5	1000	0	0	1	995	1	+	-16	0	0	0	0	0	0
8	2023-03-31	08:51:37	09:22:13	09:22:13:298	25	2	TNT_Think_CSp	Think	0	5	0	0	0	0	1000	1	THINK	-16	0	0	0	0	0	0
8	2023-03-31	08:51:37	09:22:18	09:22:18:315	25	3	TNT_Think_CSp	TNT_Think_CSp	0	5	0	0	0	0	5000	4	Cue15.jpg	-16	0	0	0	0	0	0
8	2023-03-31	08:51:37	09:22:19	09:22:19:608	25	4	TNT_Think_CSp	Intrusion	0	1000	3000	0	4	1	1275	1	How <b>often</b> did you <b>think</b> about the <b>scene</b>?   <center><br><b>NEVER (1)    BRIEFLY (2)   OFTEN (3) </b>	-16	0	0	0	0	0	0
8	2023-03-31	08:51:37	09:22:22	09:22:22:319	26	1	TNT_Object_CSm	fixation	0	5	1000	0	0	1	995	1	+	-16	0	0	0	0	0	0
8	2023-03-31	08:51:37	09:22:23	09:22:23:332	26	2	TNT_Object_CSm	Passive	0	5	0	0	0	0	1000	1	VIEW	-16	0	0	0	0	0	0
8	2023-03-31	08:51:37	09:22:28	09:22:28:349	26	3	TNT_Object_CSm	TNT_Object_CSm	0	1000	0	0	0	0	5000	1	Object8.jpg	-16	0	0	0	0	0	0
8	2023-03-31	08:51:37	09:22:30	09:22:30:849	27	1	TNT_NoThink_CSp	fixation	0	5	1500	0	0	1	1495	1	+	-8	0	0	0	0	0	0
8	2023-03-31	08:51:37	09:22:31	09:22:31:866	27	2	TNT_NoThink_CSp	NoThink	0	5	0	0	0	0	1000	1	DON'T THINK	-16	0	0	0	0	0	0
8	2023-03-31	08:51:37	09:22:36	09:22:36:883	27	3	TNT_NoThink_CSp	TNT_NoThink_CSp	0	5	0	0	0	0	5000	6	Cue16.jpg	-16	0	0	0	0	0	0
8	2023-03-31	08:51:37	09:22:37	09:22:37:560	27	4	TNT_NoThink_CSp	Intrusion	0	1500	3000	0	2	1	660	1	How <b>often</b> did you <b>think</b> about the <b>scene</b>?   <center><br><b>NEVER (1)    BRIEFLY (2)   OFTEN (3) </b>	-16	0	0	0	0	0	0
8	2023-03-31	08:51:37	09:22:40	09:22:40:387	28	1	TNT_Object_CSp	fixation	0	5	500	0	0	1	495	1	+	-16	0	0	0	0	0	0
8	2023-03-31	08:51:37	09:22:41	09:22:41:400	28	2	TNT_Object_CSp	Passive	0	5	0	0	0	0	1000	1	VIEW	-16	0	0	0	0	0	0
8	2023-03-31	08:51:37	09:22:46	09:22:46:417	28	3	TNT_Object_CSp	TNT_Object_CSp	0	1500	0	0	0	0	5000	1	Object5.jpg	-16	0	0	0	0	0	0
8	2023-03-31	08:51:37	09:22:49	09:22:49:416	29	1	TNT_Think_CSm	fixation	0	5	1500	0	0	1	1495	1	+	-8	0	0	0	0	0	0
8	2023-03-31	08:51:37	09:22:50	09:22:50:434	29	2	TNT_Think_CSm	Think	0	5	0	0	0	0	1000	1	THINK	-16	0	0	0	0	0	0
8	2023-03-31	08:51:37	09:22:55	09:22:55:451	29	3	TNT_Think_CSm	TNT_Think_CSm	0	5	0	0	0	0	5000	3	Cue9.jpg	-16	0	0	0	0	0	0
8	2023-03-31	08:51:37	09:22:56	09:22:56:536	29	4	TNT_Think_CSm	Intrusion	0	1500	3000	0	4	1	1068	1	How <b>often</b> did you <b>think</b> about the <b>scene</b>?   <center><br><b>NEVER (1)    BRIEFLY (2)   OFTEN (3) </b>	-16	0	0	0	0	0	0
8	2023-03-31	08:51:37	09:22:59	09:22:59:455	30	1	TNT_Object_CSp	fixation	0	5	1000	0	0	1	995	1	+	-16	0	0	0	0	0	0
8	2023-03-31	08:51:37	09:23:00	09:23:00:468	30	2	TNT_Object_CSp	Passive	0	5	0	0	0	0	1000	1	VIEW	-16	0	0	0	0	0	0
8	2023-03-31	08:51:37	09:23:05	09:23:05:484	30	3	TNT_Object_CSp	TNT_Object_CSp	0	1000	0	0	0	0	5000	4	Object4.jpg	-16	0	0	0	0	0	0
8	2023-03-31	08:51:37	09:23:07	09:23:07:984	31	1	TNT_Think_CSm	fixation	0	5	500	0	0	1	495	1	+	-8	0	0	0	0	0	0
8	2023-03-31	08:51:37	09:23:08	09:23:08:01	31	2	TNT_Think_CSm	Think	0	5	0	0	0	0	1000	1	THINK	-16	0	0	0	0	0	0
8	2023-03-31	08:51:37	09:23:13	09:23:13:018	31	3	TNT_Think_CSm	TNT_Think_CSm	0	5	0	0	0	0	5000	6	Cue19.jpg	-16	0	0	0	0	0	0
8	2023-03-31	08:51:37	09:23:13	09:23:13:720	31	4	TNT_Think_CSm	Intrusion	0	500	3000	0	4	1	684	1	How <b>often</b> did you <b>think</b> about the <b>scene</b>?   <center><br><b>NEVER (1)    BRIEFLY (2)   OFTEN (3) </b>	-16	0	0	0	0	0	0
8	2023-03-31	08:51:37	09:23:16	09:23:16:522	32	1	TNT_Object_CSm	fixation	0	5	500	0	0	1	495	1	+	-16	0	0	0	0	0	0
8	2023-03-31	08:51:37	09:23:17	09:23:17:535	32	2	TNT_Object_CSm	Passive	0	5	0	0	0	0	1000	1	VIEW	-16	0	0	0	0	0	0
8	2023-03-31	08:51:37	09:23:22	09:23:22:552	32	3	TNT_Object_CSm	TNT_Object_CSm	0	1000	0	0	0	0	5000	3	Object3.jpg	-16	0	0	0	0	0	0
8	2023-03-31	08:51:37	09:23:24	09:23:24:551	33	1	TNT_Think_CSm	fixation	0	5	1000	0	0	1	995	1	+	-8	0	0	0	0	0	0
8	2023-03-31	08:51:37	09:23:25	09:23:25:569	33	2	TNT_Think_CSm	Think	0	5	0	0	0	0	1000	1	THINK	-16	0	0	0	0	0	0
8	2023-03-31	08:51:37	09:23:30	09:23:30:586	33	3	TNT_Think_CSm	TNT_Think_CSm	0	5	0	0	0	0	5000	5	Cue27.jpg	-16	0	0	0	0	0	0
8	2023-03-31	08:51:37	09:23:31	09:23:31:368	33	4	TNT_Think_CSm	Intrusion	0	1000	3000	0	4	1	765	1	How <b>often</b> did you <b>think</b> about the <b>scene</b>?   <center><br><b>NEVER (1)    BRIEFLY (2)   OFTEN (3) </b>	-16	0	0	0	0	0	0
8	2023-03-31	08:51:37	09:23:35	09:23:35:090	34	1	TNT_NoThink_CSm	fixation	0	5	1500	0	0	1	1495	1	+	-16	0	0	0	0	0	0
8	2023-03-31	08:51:37	09:23:36	09:23:36:103	34	2	TNT_NoThink_CSm	NoThink	0	5	0	0	0	0	1000	1	DON'T THINK	-16	0	0	0	0	0	0
8	2023-03-31	08:51:37	09:23:41	09:23:41:120	34	3	TNT_NoThink_CSm	TNT_NoThink_CSm	0	5	0	0	0	0	5000	5	Cue7.jpg	-16	0	0	0	0	0	0
8	2023-03-31	08:51:37	09:23:41	09:23:41:608	34	4	TNT_NoThink_CSm	Intrusion	0	1500	3000	0	2	1	471	1	How <b>often</b> did you <b>think</b> about the <b>scene</b>?   <center><br><b>NEVER (1)    BRIEFLY (2)   OFTEN (3) </b>	-16	0	0	0	0	0	0
8	2023-03-31	08:51:37	09:23:45	09:23:45:624	35	1	TNT_NoThink_CSp	fixation	0	5	1500	0	0	1	1495	1	+	-16	0	0	0	0	0	0
8	2023-03-31	08:51:37	09:23:46	09:23:46:637	35	2	TNT_NoThink_CSp	NoThink	0	5	0	0	0	0	1000	1	DON'T THINK	-16	0	0	0	0	0	0
8	2023-03-31	08:51:37	09:23:51	09:23:51:654	35	3	TNT_NoThink_CSp	TNT_NoThink_CSp	0	5	0	0	0	0	5000	2	Cue12.jpg	-16	0	0	0	0	0	0
8	2023-03-31	08:51:37	09:23:52	09:23:52:184	35	4	TNT_NoThink_CSp	Intrusion	0	500	3000	0	2	1	513	1	How <b>often</b> did you <b>think</b> about the <b>scene</b>?   <center><br><b>NEVER (1)    BRIEFLY (2)   OFTEN (3) </b>	-16	0	0	0	0	0	0
8	2023-03-31	08:51:37	09:23:55	09:23:55:159	36	1	TNT_Object_CSm	fixation	0	5	500	0	0	1	495	1	+	-16	0	0	0	0	0	0
8	2023-03-31	08:51:37	09:23:56	09:23:56:171	36	2	TNT_Object_CSm	Passive	0	5	0	0	0	0	1000	1	VIEW	-16	0	0	0	0	0	0
8	2023-03-31	08:51:37	09:24:01	09:24:01:188	36	3	TNT_Object_CSm	TNT_Object_CSm	0	500	0	0	0	0	5000	2	Object1.jpg	-16	0	0	0	0	0	0
8	2023-03-31	08:51:37	09:24:02	09:24:02:687	37	1	TNT_NoThink_CSp	fixation	0	5	1000	0	0	1	995	1	+	-8	0	0	0	0	0	0
8	2023-03-31	08:51:37	09:24:03	09:24:03:705	37	2	TNT_NoThink_CSp	NoThink	0	5	0	0	0	0	1000	1	DON'T THINK	-16	0	0	0	0	0	0
8	2023-03-31	08:51:37	09:24:08	09:24:08:721	37	3	TNT_NoThink_CSp	TNT_NoThink_CSp	0	5	0	0	0	0	5000	5	Cue1.jpg	-16	0	0	0	0	0	0
8	2023-03-31	08:51:37	09:24:09	09:24:09:224	37	4	TNT_NoThink_CSp	Intrusion	0	1000	3000	0	2	1	485	1	How <b>often</b> did you <b>think</b> about the <b>scene</b>?   <center><br><b>NEVER (1)    BRIEFLY (2)   OFTEN (3) </b>	-16	0	0	0	0	0	0
8	2023-03-31	08:51:37	09:24:13	09:24:13:225	38	1	TNT_NoThink_CSp	fixation	0	5	1500	0	0	1	1495	1	+	-16	0	0	0	0	0	0
8	2023-03-31	08:51:37	09:24:14	09:24:14:239	38	2	TNT_NoThink_CSp	NoThink	0	5	0	0	0	0	1000	1	DON'T THINK	-16	0	0	0	0	0	0
8	2023-03-31	08:51:37	09:24:19	09:24:19:255	38	3	TNT_NoThink_CSp	TNT_NoThink_CSp	0	5	0	0	0	0	5000	4	Cue29.jpg	-16	0	0	0	0	0	0
8	2023-03-31	08:51:37	09:24:19	09:24:19:848	38	4	TNT_NoThink_CSp	Intrusion	0	1000	3000	0	2	1	575	1	How <b>often</b> did you <b>think</b> about the <b>scene</b>?   <center><br><b>NEVER (1)    BRIEFLY (2)   OFTEN (3) </b>	-16	0	0	0	0	0	0
8	2023-03-31	08:51:37	09:24:23	09:24:23:259	39	1	TNT_Object_CSm	fixation	0	5	1000	0	0	1	995	1	+	-16	0	0	0	0	0	0
8	2023-03-31	08:51:37	09:24:24	09:24:24:272	39	2	TNT_Object_CSm	Passive	0	5	0	0	0	0	1000	1	VIEW	-16	0	0	0	0	0	0
8	2023-03-31	08:51:37	09:24:29	09:24:29:289	39	3	TNT_Object_CSm	TNT_Object_CSm	0	1500	0	0	0	0	5000	3	Object3.jpg	-16	0	0	0	0	0	0
8	2023-03-31	08:51:37	09:24:31	09:24:31:289	40	1	TNT_Think_CSp	fixation	0	5	500	0	0	1	495	1	+	-8	0	0	0	0	0	0
8	2023-03-31	08:51:37	09:24:32	09:24:32:306	40	2	TNT_Think_CSp	Think	0	5	0	0	0	0	1000	1	THINK	-16	0	0	0	0	0	0
8	2023-03-31	08:51:37	09:24:37	09:24:37:323	40	3	TNT_Think_CSp	TNT_Think_CSp	0	5	0	0	0	0	5000	2	Cue4.jpg	-16	0	0	0	0	0	0
8	2023-03-31	08:51:37	09:24:38	09:24:38:168	40	4	TNT_Think_CSp	Intrusion	0	1500	3000	0	4	1	827	1	How <b>often</b> did you <b>think</b> about the <b>scene</b>?   <center><br><b>NEVER (1)    BRIEFLY (2)   OFTEN (3) </b>	-16	0	0	0	0	0	0
8	2023-03-31	08:51:37	09:24:40	09:24:40:827	41	1	TNT_Think_CSm	fixation	0	5	500	0	0	1	495	1	+	-16	0	0	0	0	0	0
8	2023-03-31	08:51:37	09:24:41	09:24:41:840	41	2	TNT_Think_CSm	Think	0	5	0	0	0	0	1000	1	THINK	-16	0	0	0	0	0	0
8	2023-03-31	08:51:37	09:24:46	09:24:46:857	41	3	TNT_Think_CSm	TNT_Think_CSm	0	5	0	0	0	0	5000	1	Cue3.jpg	-16	0	0	0	0	0	0
8	2023-03-31	08:51:37	09:24:47	09:24:47:464	41	4	TNT_Think_CSm	Intrusion	0	500	3000	0	4	1	590	1	How <b>often</b> did you <b>think</b> about the <b>scene</b>?   <center><br><b>NEVER (1)    BRIEFLY (2)   OFTEN (3) </b>	-16	0	0	0	0	0	0
8	2023-03-31	08:51:37	09:24:50	09:24:50:861	42	1	TNT_NoThink_CSm	fixation	0	5	1000	0	0	1	995	1	+	-16	0	0	0	0	0	0
8	2023-03-31	08:51:37	09:24:51	09:24:51:874	42	2	TNT_NoThink_CSm	NoThink	0	5	0	0	0	0	1000	1	DON'T THINK	-16	0	0	0	0	0	0
8	2023-03-31	08:51:37	09:24:56	09:24:56:891	42	3	TNT_NoThink_CSm	TNT_NoThink_CSm	0	5	0	0	0	0	5000	3	Cue23.jpg	-16	0	0	0	0	0	0
8	2023-03-31	08:51:37	09:24:57	09:24:57:416	42	4	TNT_NoThink_CSm	Intrusion	0	1500	3000	0	2	1	508	1	How <b>often</b> did you <b>think</b> about the <b>scene</b>?   <center><br><b>NEVER (1)    BRIEFLY (2)   OFTEN (3) </b>	-16	0	0	0	0	0	0
8	2023-03-31	08:51:37	09:25:01	09:25:01:395	43	1	TNT_Object_CSp	fixation	0	5	1500	0	0	1	1495	1	+	-16	0	0	0	0	0	0
8	2023-03-31	08:51:37	09:25:02	09:25:02:408	43	2	TNT_Object_CSp	Passive	0	5	0	0	0	0	1000	1	VIEW	-16	0	0	0	0	0	0
8	2023-03-31	08:51:37	09:25:07	09:25:07:425	43	3	TNT_Object_CSp	TNT_Object_CSp	0	1500	0	0	0	0	5000	2	Object7.jpg	-16	0	0	0	0	0	0
8	2023-03-31	08:51:37	09:25:10	09:25:10:424	44	1	TNT_NoThink_CSm	fixation	0	5	1500	0	0	1	1495	1	+	-8	0	0	0	0	0	0
8	2023-03-31	08:51:37	09:25:11	09:25:11:442	44	2	TNT_NoThink_CSm	NoThink	0	5	0	0	0	0	1000	1	DON'T THINK	-16	0	0	0	0	0	0
8	2023-03-31	08:51:37	09:25:16	09:25:16:459	44	3	TNT_NoThink_CSm	TNT_NoThink_CSm	0	5	0	0	0	0	5000	6	Cue8.jpg	-16	0	0	0	0	0	0
8	2023-03-31	08:51:37	09:25:17	09:25:17:032	44	4	TNT_NoThink_CSm	Intrusion	0	1000	3000	0	2	1	556	1	How <b>often</b> did you <b>think</b> about the <b>scene</b>?   <center><br><b>NEVER (1)    BRIEFLY (2)   OFTEN (3) </b>	-16	0	0	0	0	0	0
8	2023-03-31	08:51:37	09:25:20	09:25:20:963	45	1	TNT_Think_CSm	fixation	0	5	500	0	0	1	495	1	+	-16	0	0	0	0	0	0
8	2023-03-31	08:51:37	09:25:21	09:25:21:975	45	2	TNT_Think_CSm	Think	0	5	0	0	0	0	1000	1	THINK	-16	0	0	0	0	0	0
8	2023-03-31	08:51:37	09:25:26	09:25:26:993	45	3	TNT_Think_CSm	TNT_Think_CSm	0	5	0	0	0	0	5000	3	Cue9.jpg	-16	0	0	0	0	0	0
8	2023-03-31	08:51:37	09:25:27	09:25:27:00	45	4	TNT_Think_CSm	Intrusion	0	500	3000	0	4	1	990	1	How <b>often</b> did you <b>think</b> about the <b>scene</b>?   <center><br><b>NEVER (1)    BRIEFLY (2)   OFTEN (3) </b>	-16	0	0	0	0	0	0
8	2023-03-31	08:51:37	09:25:30	09:25:30:997	46	1	TNT_Object_CSm	fixation	0	5	1000	0	0	1	995	1	+	-16	0	0	0	0	0	0
8	2023-03-31	08:51:37	09:25:31	09:25:31:010	46	2	TNT_Object_CSm	Passive	0	5	0	0	0	0	1000	1	VIEW	-16	0	0	0	0	0	0
8	2023-03-31	08:51:37	09:25:36	09:25:36:026	46	3	TNT_Object_CSm	TNT_Object_CSm	0	1000	0	0	0	0	5000	1	Object8.jpg	-16	0	0	0	0	0	0
8	2023-03-31	08:51:37	09:25:38	09:25:38:026	47	1	TNT_NoThink_CSp	fixation	0	5	1000	0	0	1	995	1	+	-8	0	0	0	0	0	0
8	2023-03-31	08:51:37	09:25:39	09:25:39:044	47	2	TNT_NoThink_CSp	NoThink	0	5	0	0	0	0	1000	1	DON'T THINK	-16	0	0	0	0	0	0
8	2023-03-31	08:51:37	09:25:44	09:25:44:060	47	3	TNT_NoThink_CSp	TNT_NoThink_CSp	0	5	0	0	0	0	5000	3	Cue32.jpg	-16	0	0	0	0	0	0
8	2023-03-31	08:51:37	09:25:44	09:25:44:712	47	4	TNT_NoThink_CSp	Intrusion	0	500	3000	0	2	1	634	1	How <b>often</b> did you <b>think</b> about the <b>scene</b>?   <center><br><b>NEVER (1)    BRIEFLY (2)   OFTEN (3) </b>	-16	0	0	0	0	0	0
8	2023-03-31	08:51:37	09:25:47	09:25:47:564	48	1	TNT_Think_CSp	fixation	0	5	500	0	0	1	495	1	+	-16	0	0	0	0	0	0
8	2023-03-31	08:51:37	09:25:48	09:25:48:577	48	2	TNT_Think_CSp	Think	0	5	0	0	0	0	1000	1	THINK	-16	0	0	0	0	0	0
8	2023-03-31	08:51:37	09:25:53	09:25:53:594	48	3	TNT_Think_CSp	TNT_Think_CSp	0	5	0	0	0	0	5000	3	Cue28.jpg	-16	0	0	0	0	0	0
8	2023-03-31	08:51:37	09:25:54	09:25:54:472	48	4	TNT_Think_CSp	Intrusion	0	1500	3000	0	4	1	860	1	How <b>often</b> did you <b>think</b> about the <b>scene</b>?   <center><br><b>NEVER (1)    BRIEFLY (2)   OFTEN (3) </b>	-16	0	0	0	0	0	0
8	2023-03-31	08:51:37	09:25:58	09:25:58:098	49	1	TNT_Object_CSp	fixation	0	5	1500	0	0	1	1495	1	+	-16	0	0	0	0	0	0
8	2023-03-31	08:51:37	09:25:59	09:25:59:111	49	2	TNT_Object_CSp	Passive	0	5	0	0	0	0	1000	1	VIEW	-16	0	0	0	0	0	0
8	2023-03-31	08:51:37	09:26:04	09:26:04:128	49	3	TNT_Object_CSp	TNT_Object_CSp	0	500	0	0	0	0	5000	1	Object5.jpg	-16	0	0	0	0	0	0
8	2023-03-31	08:51:37	09:26:05	09:26:05:127	50	1	TNT_Think_CSp	fixation	0	5	500	0	0	1	495	1	+	-8	0	0	0	0	0	0
8	2023-03-31	08:51:37	09:26:06	09:26:06:145	50	2	TNT_Think_CSp	Think	0	5	0	0	0	0	1000	1	THINK	-16	0	0	0	0	0	0
8	2023-03-31	08:51:37	09:26:11	09:26:11:161	50	3	TNT_Think_CSp	TNT_Think_CSp	0	5	0	0	0	0	5000	4	Cue15.jpg	-16	0	0	0	0	0	0
8	2023-03-31	08:51:37	09:26:12	09:26:12:040	50	4	TNT_Think_CSp	Intrusion	0	1000	3000	0	4	1	861	1	How <b>often</b> did you <b>think</b> about the <b>scene</b>?   <center><br><b>NEVER (1)    BRIEFLY (2)   OFTEN (3) </b>	-16	0	0	0	0	0	0
8	2023-03-31	08:51:37	09:26:15	09:26:15:165	51	1	TNT_NoThink_CSm	fixation	0	5	1000	0	0	1	995	1	+	-16	0	0	0	0	0	0
8	2023-03-31	08:51:37	09:26:16	09:26:16:179	51	2	TNT_NoThink_CSm	NoThink	0	5	0	0	0	0	1000	1	DON'T THINK	-16	0	0	0	0	0	0
8	2023-03-31	08:51:37	09:26:21	09:26:21:196	51	3	TNT_NoThink_CSm	TNT_NoThink_CSm	0	5	0	0	0	0	5000	4	Cue34.jpg	-16	0	0	0	0	0	0
8	2023-03-31	08:51:37	09:26:21	09:26:21:640	51	4	TNT_NoThink_CSm	Intrusion	0	1500	3000	0	2	1	427	1	How <b>often</b> did you <b>think</b> about the <b>scene</b>?   <center><br><b>NEVER (1)    BRIEFLY (2)   OFTEN (3) </b>	-16	0	0	0	0	0	0
8	2023-03-31	08:51:37	09:26:25	09:26:25:700	52	1	TNT_NoThink_CSm	fixation	0	5	1500	0	0	1	1495	1	+	-16	0	0	0	0	0	0
8	2023-03-31	08:51:37	09:26:26	09:26:26:713	52	2	TNT_NoThink_CSm	NoThink	0	5	0	0	0	0	1000	1	DON'T THINK	-16	0	0	0	0	0	0
8	2023-03-31	08:51:37	09:26:31	09:26:31:730	52	3	TNT_NoThink_CSm	TNT_NoThink_CSm	0	5	0	0	0	0	5000	1	Cue11.jpg	-16	0	0	0	0	0	0
8	2023-03-31	08:51:37	09:26:32	09:26:32:360	52	4	TNT_NoThink_CSm	Intrusion	0	1000	3000	0	2	1	613	1	How <b>often</b> did you <b>think</b> about the <b>scene</b>?   <center><br><b>NEVER (1)    BRIEFLY (2)   OFTEN (3) </b>	-16	0	0	0	0	0	0
8	2023-03-31	08:51:37	09:26:35	09:26:35:234	53	1	TNT_Object_CSm	fixation	0	5	500	0	0	1	495	1	+	-16	0	0	0	0	0	0
8	2023-03-31	08:51:37	09:26:36	09:26:36:246	53	2	TNT_Object_CSm	Passive	0	5	0	0	0	0	1000	1	VIEW	-16	0	0	0	0	0	0
8	2023-03-31	08:51:37	09:26:41	09:26:41:263	53	3	TNT_Object_CSm	TNT_Object_CSm	0	1500	0	0	0	0	5000	4	Object2.jpg	-16	0	0	0	0	0	0
8	2023-03-31	08:51:37	09:26:44	09:26:44:263	54	1	TNT_Object_CSp	fixation	0	5	1500	0	0	1	1495	1	+	-8	0	0	0	0	0	0
8	2023-03-31	08:51:37	09:26:45	09:26:45:280	54	2	TNT_Object_CSp	Passive	0	5	0	0	0	0	1000	1	VIEW	-16	0	0	0	0	0	0
8	2023-03-31	08:51:37	09:26:50	09:26:50:297	54	3	TNT_Object_CSp	TNT_Object_CSp	0	1000	0	0	0	0	5000	3	Object6.jpg	-16	0	0	0	0	0	0
8	2023-03-31	08:51:37	09:26:52	09:26:52:297	55	1	TNT_Object_CSp	fixation	0	5	1000	0	0	1	995	1	+	-8	0	0	0	0	0	0
8	2023-03-31	08:51:37	09:26:53	09:26:53:314	55	2	TNT_Object_CSp	Passive	0	5	0	0	0	0	1000	1	VIEW	-16	0	0	0	0	0	0
8	2023-03-31	08:51:37	09:26:58	09:26:58:331	55	3	TNT_Object_CSp	TNT_Object_CSp	0	500	0	0	0	0	5000	4	Object4.jpg	-16	0	0	0	0	0	0
8	2023-03-31	08:51:37	09:27:00	09:27:00:330	56	1	TNT_Think_CSm	fixation	0	5	1500	0	0	1	1495	1	+	-8	0	0	0	0	0	0
8	2023-03-31	08:51:37	09:27:01	09:27:01:348	56	2	TNT_Think_CSm	Think	0	5	0	0	0	0	1000	1	THINK	-16	0	0	0	0	0	0
8	2023-03-31	08:51:37	09:27:06	09:27:06:365	56	3	TNT_Think_CSm	TNT_Think_CSm	0	5	0	0	0	0	5000	4	Cue30.jpg	-16	0	0	0	0	0	0
8	2023-03-31	08:51:37	09:27:07	09:27:07:080	56	4	TNT_Think_CSm	Intrusion	0	500	3000	0	4	1	698	1	How <b>often</b> did you <b>think</b> about the <b>scene</b>?   <center><br><b>NEVER (1)    BRIEFLY (2)   OFTEN (3) </b>	-16	0	0	0	0	0	0
8	2023-03-31	08:51:37	09:27:09	09:27:09:869	57	1	TNT_Think_CSp	fixation	0	5	500	0	0	1	495	1	+	-8	0	0	0	0	0	0
8	2023-03-31	08:51:37	09:27:10	09:27:10:882	57	2	TNT_Think_CSp	Think	0	5	0	0	0	0	1000	1	THINK	-16	0	0	0	0	0	0
8	2023-03-31	08:51:37	09:27:15	09:27:15:899	57	3	TNT_Think_CSp	TNT_Think_CSp	0	5	0	0	0	0	5000	1	Cue24.jpg	-16	0	0	0	0	0	0
8	2023-03-31	08:51:37	09:27:16	09:27:16:872	57	4	TNT_Think_CSp	Intrusion	0	1000	3000	0	4	1	956	1	How <b>often</b> did you <b>think</b> about the <b>scene</b>?   <center><br><b>NEVER (1)    BRIEFLY (2)   OFTEN (3) </b>	-16	0	0	0	0	0	0
8	2023-03-31	08:51:37	09:27:19	09:27:19:903	58	1	TNT_NoThink_CSp	fixation	0	5	1000	0	0	1	995	1	+	-16	0	0	0	0	0	0
8	2023-03-31	08:51:37	09:27:21	09:27:21:916	58	2	TNT_NoThink_CSp	NoThink	0	5	0	0	0	0	1000	1	DON'T THINK	-16	0	0	0	0	0	0
8	2023-03-31	08:51:37	09:27:26	09:27:26:932	58	3	TNT_NoThink_CSp	TNT_NoThink_CSp	0	5	0	0	0	0	5000	6	Cue16.jpg	-16	0	0	0	0	0	0
8	2023-03-31	08:51:37	09:27:26	09:27:26:376	58	4	TNT_NoThink_CSp	Intrusion	0	1500	3000	0	3	1	426	1	How <b>often</b> did you <b>think</b> about the <b>scene</b>?   <center><br><b>NEVER (1)    BRIEFLY (2)   OFTEN (3) </b>	-16	0	0	0	0	0	0
8	2023-03-31	08:51:37	09:27:29	09:27:29:436	59	1	TNT_NoThink_CSm	fixation	0	5	500	0	0	1	495	1	+	-8	0	0	0	0	0	0
8	2023-03-31	08:51:37	09:27:30	09:27:30:450	59	2	TNT_NoThink_CSm	NoThink	0	5	0	0	0	0	1000	1	DON'T THINK	-16	0	0	0	0	0	0
8	2023-03-31	08:51:37	09:27:35	09:27:35:466	59	3	TNT_NoThink_CSm	TNT_NoThink_CSm	0	5	0	0	0	0	5000	2	Cue33.jpg	-16	0	0	0	0	0	0
8	2023-03-31	08:51:37	09:27:36	09:27:36:024	59	4	TNT_NoThink_CSm	Intrusion	0	500	3000	0	2	1	540	1	How <b>often</b> did you <b>think</b> about the <b>scene</b>?   <center><br><b>NEVER (1)    BRIEFLY (2)   OFTEN (3) </b>	-16	0	0	0	0	0	0
8	2023-03-31	08:51:37	09:27:40	09:27:40:970	60	1	TNT_NoThink_CSp	fixation	0	5	1500	0	0	1	1495	1	+	-16	0	0	0	0	0	0
8	2023-03-31	08:51:37	09:27:41	09:27:41:984	60	2	TNT_NoThink_CSp	NoThink	0	5	0	0	0	0	1000	1	DON'T THINK	-16	0	0	0	0	0	0
8	2023-03-31	08:51:37	09:27:46	09:27:46:00	60	3	TNT_NoThink_CSp	TNT_NoThink_CSp	0	5	0	0	0	0	5000	1	Cue22.jpg	-16	0	0	0	0	0	0
8	2023-03-31	08:51:37	09:27:46	09:27:46:552	60	4	TNT_NoThink_CSp	Intrusion	0	500	3000	0	3	1	534	1	How <b>often</b> did you <b>think</b> about the <b>scene</b>?   <center><br><b>NEVER (1)    BRIEFLY (2)   OFTEN (3) </b>	-16	0	0	0	0	0	0
8	2023-03-31	08:51:37	09:27:50	09:27:50:04	61	1	TNT_Think_CSm	fixation	0	5	1000	0	0	1	995	1	+	-16	0	0	0	0	0	0
8	2023-03-31	08:51:37	09:27:51	09:27:51:018	61	2	TNT_Think_CSm	Think	0	5	0	0	0	0	1000	1	THINK	-16	0	0	0	0	0	0
8	2023-03-31	08:51:37	09:27:56	09:27:56:034	61	3	TNT_Think_CSm	TNT_Think_CSm	0	5	0	0	0	0	5000	6	Cue19.jpg	-16	0	0	0	0	0	0
8	2023-03-31	08:51:37	09:27:57	09:27:57:176	61	4	TNT_Think_CSm	Intrusion	0	1000	3000	0	4	1	1124	1	How <b>often</b> did you <b>think</b> about the <b>scene</b>?   <center><br><b>NEVER (1)    BRIEFLY (2)   OFTEN (3) </b>	-16	0	0	0	0	0	0
8	2023-03-31	08:51:37	09:28:00	09:28:00:038	62	1	TNT_Think_CSm	fixation	0	5	1000	0	0	1	995	1	+	-16	0	0	0	0	0	0
8	2023-03-31	08:51:37	09:28:01	09:28:01:051	62	2	TNT_Think_CSm	Think	0	5	0	0	0	0	1000	1	THINK	-16	0	0	0	0	0	0
8	2023-03-31	08:51:37	09:28:06	09:28:06:068	62	3	TNT_Think_CSm	TNT_Think_CSm	0	5	0	0	0	0	5000	5	Cue27.jpg	-16	0	0	0	0	0	0
8	2023-03-31	08:51:37	09:28:07	09:28:07:936	62	4	TNT_Think_CSm	Intrusion	0	1500	3000	0	4	1	850	1	How <b>often</b> did you <b>think</b> about the <b>scene</b>?   <center><br><b>NEVER (1)    BRIEFLY (2)   OFTEN (3) </b>	-16	0	0	0	0	0	0
8	2023-03-31	08:51:37	09:28:10	09:28:10:572	63	1	TNT_Think_CSp	fixation	0	5	1500	0	0	1	1495	1	+	-16	0	0	0	0	0	0
8	2023-03-31	08:51:37	09:28:11	09:28:11:585	63	2	TNT_Think_CSp	Think	0	5	0	0	0	0	1000	1	THINK	-16	0	0	0	0	0	0
8	2023-03-31	08:51:37	09:28:16	09:28:16:602	63	3	TNT_Think_CSp	TNT_Think_CSp	0	5	0	0	0	0	5000	5	Cue17.jpg	-16	0	0	0	0	0	0
8	2023-03-31	08:51:37	09:28:17	09:28:17:832	63	4	TNT_Think_CSp	Intrusion	0	1500	3000	0	4	1	1212	1	How <b>often</b> did you <b>think</b> about the <b>scene</b>?   <center><br><b>NEVER (1)    BRIEFLY (2)   OFTEN (3) </b>	-16	0	0	0	0	0	0
8	2023-03-31	08:51:37	09:28:20	09:28:20:106	64	1	TNT_Think_CSp	fixation	0	5	500	0	0	1	495	1	+	-16	0	0	0	0	0	0
8	2023-03-31	08:51:37	09:28:21	09:28:21:119	64	2	TNT_Think_CSp	Think	0	5	0	0	0	0	1000	1	THINK	-16	0	0	0	0	0	0
8	2023-03-31	08:51:37	09:28:26	09:28:26:136	64	3	TNT_Think_CSp	TNT_Think_CSp	0	5	0	0	0	0	5000	6	Cue21.jpg	-16	0	0	0	0	0	0
8	2023-03-31	08:51:37	09:28:27	09:28:27:160	64	4	TNT_Think_CSp	Intrusion	0	500	3000	0	4	1	1007	1	How <b>often</b> did you <b>think</b> about the <b>scene</b>?   <center><br><b>NEVER (1)    BRIEFLY (2)   OFTEN (3) </b>	-16	0	0	0	0	0	0
8	2023-03-31	08:51:37	09:28:29	09:28:29:640	65	1	TNT_Think_CSm	fixation	0	5	500	0	0	1	495	1	+	-16	0	0	0	0	0	0
8	2023-03-31	08:51:37	09:28:30	09:28:30:653	65	2	TNT_Think_CSm	Think	0	5	0	0	0	0	1000	1	THINK	-16	0	0	0	0	0	0
8	2023-03-31	08:51:37	09:28:35	09:28:35:670	65	3	TNT_Think_CSm	TNT_Think_CSm	0	5	0	0	0	0	5000	2	Cue25.jpg	-16	0	0	0	0	0	0
8	2023-03-31	08:51:37	09:28:37	09:28:37:128	65	4	TNT_Think_CSm	Intrusion	0	1000	3000	0	4	1	1441	1	How <b>often</b> did you <b>think</b> about the <b>scene</b>?   <center><br><b>NEVER (1)    BRIEFLY (2)   OFTEN (3) </b>	-16	0	0	0	0	0	0
8	2023-03-31	08:51:37	09:28:40	09:28:40:174	66	1	Expectancy_rating	fixation	0	5	1500	0	0	1	1495	1	+	-16	0	0	0	0	0	0
8	2023-03-31	08:51:37	09:28:50	09:28:50:602	66	2	Expectancy_rating	expectancy_rating	0	500	0	0	0	0	10382	1	When you saw the <b>object</b>,   to what <b>degree (0-100%)</b> did you expect the <b>unpleasant sound to occur</b>?	-16	42	Object2.jpg	-16	0	0	0
8	2023-03-31	08:51:37	09:28:52	09:28:52:084	67	1	Expectancy_rating	fixation	0	5	1000	0	0	1	995	1	+	-13	0	0	0	0	0	0
8	2023-03-31	08:51:37	09:29:00	09:29:00:069	67	2	Expectancy_rating	expectancy_rating	0	1000	0	0	0	0	7960	1	When you saw the <b>object</b>,   to what <b>degree (0-100%)</b> did you expect the <b>unpleasant sound to occur</b>?	-11	27	Cue27.jpg	-11	0	0	0
8	2023-03-31	08:51:37	09:29:01	09:29:01:568	68	1	Expectancy_rating	fixation	0	5	500	0	0	1	495	1	+	-15	0	0	0	0	0	0
8	2023-03-31	08:51:37	09:29:13	09:29:13:038	68	2	Expectancy_rating	expectancy_rating	0	1500	0	0	50	0	11444	1	When you saw the <b>object</b>,   to what <b>degree (0-100%)</b> did you expect the <b>unpleasant sound to occur</b>?	-11	47	Object7.jpg	-11	0	0	0
8	2023-03-31	08:51:37	09:29:16	09:29:16:036	69	1	Expectancy_rating	fixation	0	5	1500	0	0	1	1495	1	+	-14	0	0	0	0	0	0
8	2023-03-31	08:51:37	09:29:20	09:29:20:354	69	2	Expectancy_rating	expectancy_rating	0	500	0	0	60	0	4289	1	When you saw the <b>object</b>,   to what <b>degree (0-100%)</b> did you expect the <b>unpleasant sound to occur</b>?	-11	28	Cue28.jpg	-11	0	0	0
8	2023-03-31	08:51:37	09:29:21	09:29:21:853	70	1	Expectancy_rating	fixation	0	5	1000	0	0	1	995	1	+	-15	0	0	0	0	0	0
8	2023-03-31	08:51:37	09:29:26	09:29:26:838	70	2	Expectancy_rating	expectancy_rating	0	1500	0	0	0	0	4952	1	When you saw the <b>object</b>,   to what <b>degree (0-100%)</b> did you expect the <b>unpleasant sound to occur</b>?	-12	9	Cue9.jpg	-12	0	0	0
8	2023-03-31	08:51:37	09:29:28	09:29:28:836	71	1	Expectancy_rating	fixation	0	5	500	0	0	1	495	1	+	-15	0	0	0	0	0	0
8	2023-03-31	08:51:37	09:29:32	09:29:32:804	71	2	Expectancy_rating	expectancy_rating	0	1000	0	0	0	0	3936	1	When you saw the <b>object</b>,   to what <b>degree (0-100%)</b> did you expect the <b>unpleasant sound to occur</b>?	-10	35	Cue35.jpg	-10	0	0	0
8	2023-03-31	08:51:37	09:29:35	09:29:35:303	72	1	Expectancy_rating	fixation	0	5	1500	0	0	1	1495	1	+	-14	0	0	0	0	0	0
8	2023-03-31	08:51:37	09:29:46	09:29:46:172	72	2	Expectancy_rating	expectancy_rating	0	500	0	0	0	0	10844	1	When you saw the <b>object</b>,   to what <b>degree (0-100%)</b> did you expect the <b>unpleasant sound to occur</b>?	-11	10	Cue10.jpg	-11	0	0	0
8	2023-03-31	08:51:37	09:29:47	09:29:47:670	73	1	Expectancy_rating	fixation	0	5	1000	0	0	1	995	1	+	-15	0	0	0	0	0	0
8	2023-03-31	08:51:37	09:29:54	09:29:54:056	73	2	Expectancy_rating	expectancy_rating	0	1000	0	0	60	0	6357	1	When you saw the <b>object</b>,   to what <b>degree (0-100%)</b> did you expect the <b>unpleasant sound to occur</b>?	-11	11	Cue11.jpg	-11	0	0	0
8	2023-03-31	08:51:37	09:29:56	09:29:56:055	74	1	Expectancy_rating	fixation	0	5	1000	0	0	1	995	1	+	-14	0	0	0	0	0	0
8	2023-03-31	08:51:37	09:29:59	09:29:59:340	74	2	Expectancy_rating	expectancy_rating	0	1500	0	0	0	0	3254	1	When you saw the <b>object</b>,   to what <b>degree (0-100%)</b> did you expect the <b>unpleasant sound to occur</b>?	-12	15	Cue15.jpg	-12	0	0	0
8	2023-03-31	08:51:37	09:30:01	09:30:01:339	75	1	Expectancy_rating	fixation	0	5	500	0	0	1	495	1	+	-15	0	0	0	0	0	0
8	2023-03-31	08:51:37	09:30:05	09:30:05:973	75	2	Expectancy_rating	expectancy_rating	0	1500	0	0	0	0	3602	1	When you saw the <b>object</b>,   to what <b>degree (0-100%)</b> did you expect the <b>unpleasant sound to occur</b>?	-16	5	Cue5.jpg	-16	0	0	0
8	2023-03-31	08:51:37	09:30:08	09:30:08:972	76	1	Expectancy_rating	fixation	0	5	1500	0	0	1	1495	1	+	-15	0	0	0	0	0	0
8	2023-03-31	08:51:37	09:30:11	09:30:11:674	76	2	Expectancy_rating	expectancy_rating	0	1000	0	0	60	0	3673	1	When you saw the <b>object</b>,   to what <b>degree (0-100%)</b> did you expect the <b>unpleasant sound to occur</b>?	-11	40	Cue40.jpg	-11	0	0	0
8	2023-03-31	08:51:37	09:30:14	09:30:14:173	77	1	Expectancy_rating	fixation	0	5	1500	0	0	1	1495	1	+	-15	0	0	0	0	0	0
8	2023-03-31	08:51:37	09:30:16	09:30:16:623	77	2	Expectancy_rating	expectancy_rating	0	500	0	0	100	0	2400	1	When you saw the <b>object</b>,   to what <b>degree (0-100%)</b> did you expect the <b>unpleasant sound to occur</b>?	-16	36	Cue36.jpg	-16	0	0	0
8	2023-03-31	08:51:37	09:30:18	09:30:18:106	78	1	Expectancy_rating	fixation	0	5	1000	0	0	1	995	1	+	-15	0	0	0	0	0	0
8	2023-03-31	08:51:37	09:30:22	09:30:22:958	78	2	Expectancy_rating	expectancy_rating	0	1000	0	0	70	0	3819	1	When you saw the <b>object</b>,   to what <b>degree (0-100%)</b> did you expect the <b>unpleasant sound to occur</b>?	-9	12	Cue12.jpg	-9	0	0	0
8	2023-03-31	08:51:37	09:30:23	09:30:23:456	79	1	Expectancy_rating	fixation	0	5	500	0	0	1	495	1	+	-15	0	0	0	0	0	0
8	2023-03-31	08:51:37	09:30:26	09:30:26:441	79	2	Expectancy_rating	expectancy_rating	0	1500	0	0	50	0	2956	1	When you saw the <b>object</b>,   to what <b>degree (0-100%)</b> did you expect the <b>unpleasant sound to occur</b>?	-12	13	Cue13.jpg	-12	0	0	0
8	2023-03-31	08:51:37	09:30:29	09:30:29:941	80	1	Expectancy_rating	fixation	0	5	1000	0	0	1	995	1	+	-13	0	0	0	0	0	0
8	2023-03-31	08:51:37	09:30:33	09:30:33:374	80	2	Expectancy_rating	expectancy_rating	0	500	0	0	100	0	4401	1	When you saw the <b>object</b>,   to what <b>degree (0-100%)</b> did you expect the <b>unpleasant sound to occur</b>?	-16	22	Cue22.jpg	-16	0	0	0
8	2023-03-31	08:51:37	09:30:35	09:30:35:373	81	1	Expectancy_rating	fixation	0	5	1500	0	0	1	1495	1	+	-14	0	0	0	0	0	0
8	2023-03-31	08:51:37	09:30:38	09:30:38:08	81	2	Expectancy_rating	expectancy_rating	0	1500	0	0	0	0	2614	1	When you saw the <b>object</b>,   to what <b>degree (0-100%)</b> did you expect the <b>unpleasant sound to occur</b>?	-12	3	Cue3.jpg	-12	0	0	0
8	2023-03-31	08:51:37	09:30:40	09:30:40:07	82	1	Expectancy_rating	fixation	0	5	500	0	0	1	495	1	+	-14	0	0	0	0	0	0
8	2023-03-31	08:51:37	09:30:45	09:30:45:359	82	2	Expectancy_rating	expectancy_rating	0	500	0	0	0	0	5325	1	When you saw the <b>object</b>,   to what <b>degree (0-100%)</b> did you expect the <b>unpleasant sound to occur</b>?	-12	37	Cue37.jpg	-12	0	0	0
8	2023-03-31	08:51:37	09:30:46	09:30:46:358	83	1	Expectancy_rating	fixation	0	5	500	0	0	1	495	1	+	-14	0	0	0	0	0	0
8	2023-03-31	08:51:37	09:30:52	09:30:52:809	83	2	Expectancy_rating	expectancy_rating	0	1000	0	0	80	0	6431	1	When you saw the <b>object</b>,   to what <b>degree (0-100%)</b> did you expect the <b>unpleasant sound to occur</b>?	-16	14	Cue14.jpg	-16	0	0	0
8	2023-03-31	08:51:37	09:30:55	09:30:55:309	84	1	Expectancy_rating	fixation	0	5	1500	0	0	1	1495	1	+	-15	0	0	0	0	0	0
8	2023-03-31	08:51:37	09:30:58	09:30:58:827	84	2	Expectancy_rating	expectancy_rating	0	1500	0	0	90	0	3488	1	When you saw the <b>object</b>,   to what <b>degree (0-100%)</b> did you expect the <b>unpleasant sound to occur</b>?	-10	31	Cue31.jpg	-10	0	0	0
8	2023-03-31	08:51:37	09:31:01	09:31:01:325	85	1	Expectancy_rating	fixation	0	5	1000	0	0	1	995	1	+	-14	0	0	0	0	0	0
8	2023-03-31	08:51:37	09:31:04	09:31:04:227	85	2	Expectancy_rating	expectancy_rating	0	500	0	0	0	0	2871	1	When you saw the <b>object</b>,   to what <b>degree (0-100%)</b> did you expect the <b>unpleasant sound to occur</b>?	-12	33	Cue33.jpg	-12	0	0	0
8	2023-03-31	08:51:37	09:31:06	09:31:06:225	86	1	Expectancy_rating	fixation	0	5	1500	0	0	1	1495	1	+	-15	0	0	0	0	0	0
8	2023-03-31	08:51:37	09:31:08	09:31:08:726	86	2	Expectancy_rating	expectancy_rating	0	1000	0	0	100	0	2451	1	When you saw the <b>object</b>,   to what <b>degree (0-100%)</b> did you expect the <b>unpleasant sound to occur</b>?	-11	46	Object6.jpg	-11	0	0	0
8	2023-03-31	08:51:37	09:31:10	09:31:10:709	87	1	Expectancy_rating	fixation	0	5	1000	0	0	1	995	1	+	-14	0	0	0	0	0	0
8	2023-03-31	08:51:37	09:31:16	09:31:16:144	87	2	Expectancy_rating	expectancy_rating	0	500	0	0	20	0	5383	1	When you saw the <b>object</b>,   to what <b>degree (0-100%)</b> did you expect the <b>unpleasant sound to occur</b>?	-10	30	Cue30.jpg	-10	0	0	0
8	2023-03-31	08:51:37	09:31:17	09:31:17:126	88	1	Expectancy_rating	fixation	0	5	500	0	0	1	495	1	+	-15	0	0	0	0	0	0
8	2023-03-31	08:51:37	09:31:19	09:31:19:844	88	2	Expectancy_rating	expectancy_rating	0	1000	0	0	0	0	2686	1	When you saw the <b>object</b>,   to what <b>degree (0-100%)</b> did you expect the <b>unpleasant sound to occur</b>?	-11	18	Cue18.jpg	-11	0	0	0
8	2023-03-31	08:51:37	09:31:21	09:31:21:344	89	1	Expectancy_rating	fixation	0	5	500	0	0	1	495	1	+	-12	0	0	0	0	0	0
8	2023-03-31	08:51:37	09:31:24	09:31:24:661	89	2	Expectancy_rating	expectancy_rating	0	1500	0	0	0	0	3286	1	When you saw the <b>object</b>,   to what <b>degree (0-100%)</b> did you expect the <b>unpleasant sound to occur</b>?	-16	19	Cue19.jpg	-16	0	0	0
8	2023-03-31	08:51:37	09:31:27	09:31:27:160	90	1	Expectancy_rating	fixation	0	5	1000	0	0	1	995	1	+	-14	0	0	0	0	0	0
8	2023-03-31	08:51:37	09:31:30	09:31:30:128	90	2	Expectancy_rating	expectancy_rating	0	1000	0	0	50	0	2940	1	When you saw the <b>object</b>,   to what <b>degree (0-100%)</b> did you expect the <b>unpleasant sound to occur</b>?	-12	21	Cue21.jpg	-12	0	0	0
8	2023-03-31	08:51:37	09:31:32	09:31:32:627	91	1	Expectancy_rating	fixation	0	5	1500	0	0	1	1495	1	+	-14	0	0	0	0	0	0
8	2023-03-31	08:51:37	09:31:36	09:31:36:329	91	2	Expectancy_rating	expectancy_rating	0	1500	0	0	10	0	3681	1	When you saw the <b>object</b>,   to what <b>degree (0-100%)</b> did you expect the <b>unpleasant sound to occur</b>?	-11	6	Cue6.jpg	-11	0	0	0
8	2023-03-31	08:51:37	09:31:39	09:31:39:327	92	1	Expectancy_rating	fixation	0	5	1500	0	0	1	1495	1	+	-14	0	0	0	0	0	0
8	2023-03-31	08:51:37	09:31:43	09:31:43:646	92	2	Expectancy_rating	expectancy_rating	0	500	0	0	100	0	4285	1	When you saw the <b>object</b>,   to what <b>degree (0-100%)</b> did you expect the <b>unpleasant sound to occur</b>?	-12	44	Object4.jpg	-12	0	0	0
8	2023-03-31	08:51:37	09:31:44	09:31:44:645	93	1	Expectancy_rating	fixation	0	5	500	0	0	1	495	1	+	-15	0	0	0	0	0	0
8	2023-03-31	08:51:37	09:31:47	09:31:47:779	93	2	Expectancy_rating	expectancy_rating	0	500	0	0	0	0	3112	1	When you saw the <b>object</b>,   to what <b>degree (0-100%)</b> did you expect the <b>unpleasant sound to occur</b>?	-12	48	Object8.jpg	-12	0	0	0
8	2023-03-31	08:51:37	09:31:49	09:31:49:279	94	1	Expectancy_rating	fixation	0	5	1000	0	0	1	995	1	+	-14	0	0	0	0	0	0
8	2023-03-31	08:51:37	09:31:52	09:31:52:846	94	2	Expectancy_rating	expectancy_rating	0	1000	0	0	70	0	3542	1	When you saw the <b>object</b>,   to what <b>degree (0-100%)</b> did you expect the <b>unpleasant sound to occur</b>?	-16	45	Object5.jpg	-16	0	0	0
8	2023-03-31	08:51:37	09:31:54	09:31:54:344	95	1	Expectancy_rating	fixation	0	5	500	0	0	1	495	1	+	-14	0	0	0	0	0	0
8	2023-03-31	08:51:37	09:31:58	09:31:58:480	95	2	Expectancy_rating	expectancy_rating	0	1500	0	0	10	0	4116	1	When you saw the <b>object</b>,   to what <b>degree (0-100%)</b> did you expect the <b>unpleasant sound to occur</b>?	-10	23	Cue23.jpg	-10	0	0	0
8	2023-03-31	08:51:37	09:32:01	09:32:01:979	96	1	Expectancy_rating	fixation	0	5	1000	0	0	1	995	1	+	-15	0	0	0	0	0	0
8	2023-03-31	08:51:37	09:32:03	09:32:03:663	96	2	Expectancy_rating	expectancy_rating	0	1500	0	0	0	0	2634	1	When you saw the <b>object</b>,   to what <b>degree (0-100%)</b> did you expect the <b>unpleasant sound to occur</b>?	-12	43	Object3.jpg	-12	0	0	0
8	2023-03-31	08:51:37	09:32:06	09:32:06:647	97	1	Expectancy_rating	fixation	0	5	1500	0	0	1	1495	1	+	-15	0	0	0	0	0	0
8	2023-03-31	08:51:37	09:32:10	09:32:10:198	97	2	Expectancy_rating	expectancy_rating	0	500	0	0	20	0	3527	1	When you saw the <b>object</b>,   to what <b>degree (0-100%)</b> did you expect the <b>unpleasant sound to occur</b>?	-16	4	Cue4.jpg	-16	0	0	0
8	2023-03-31	08:51:37	09:32:11	09:32:11:698	98	1	Expectancy_rating	fixation	0	5	1000	0	0	1	995	1	+	-13	0	0	0	0	0	0
8	2023-03-31	08:51:37	09:32:14	09:32:14:781	98	2	Expectancy_rating	expectancy_rating	0	1000	0	0	100	0	3052	1	When you saw the <b>object</b>,   to what <b>degree (0-100%)</b> did you expect the <b>unpleasant sound to occur</b>?	-16	39	Cue39.jpg	-16	0	0	0
8	2023-03-31	08:51:37	09:32:17	09:32:17:280	99	1	Expectancy_rating	fixation	0	5	1500	0	0	1	1495	1	+	-15	0	0	0	0	0	0
8	2023-03-31	08:51:37	09:32:21	09:32:21:181	99	2	Expectancy_rating	expectancy_rating	0	1500	0	0	100	0	3869	1	When you saw the <b>object</b>,   to what <b>degree (0-100%)</b> did you expect the <b>unpleasant sound to occur</b>?	-16	24	Cue24.jpg	-16	0	0	0
8	2023-03-31	08:51:37	09:32:23	09:32:23:180	100	1	Expectancy_rating	fixation	0	5	500	0	0	1	495	1	+	-14	0	0	0	0	0	0
8	2023-03-31	08:51:37	09:32:26	09:32:26:648	100	2	Expectancy_rating	expectancy_rating	0	1000	0	0	0	0	3440	1	When you saw the <b>object</b>,   to what <b>degree (0-100%)</b> did you expect the <b>unpleasant sound to occur</b>?	-12	41	Object1.jpg	-12	0	0	0
8	2023-03-31	08:51:37	09:32:28	09:32:28:147	101	1	Expectancy_rating	fixation	0	5	500	0	0	1	495	1	+	-15	0	0	0	0	0	0
8	2023-03-31	08:51:37	09:32:35	09:32:35:165	101	2	Expectancy_rating	expectancy_rating	0	500	0	0	50	0	6985	1	When you saw the <b>object</b>,   to what <b>degree (0-100%)</b> did you expect the <b>unpleasant sound to occur</b>?	-12	17	Cue17.jpg	-12	0	0	0
8	2023-03-31	08:51:37	09:32:37	09:32:37:164	102	1	Expectancy_rating	fixation	0	5	1500	0	0	1	1495	1	+	-14	0	0	0	0	0	0
8	2023-03-31	08:51:37	09:32:40	09:32:40:065	102	2	Expectancy_rating	expectancy_rating	0	1000	0	0	0	0	2872	1	When you saw the <b>object</b>,   to what <b>degree (0-100%)</b> did you expect the <b>unpleasant sound to occur</b>?	-12	20	Cue20.jpg	-12	0	0	0
8	2023-03-31	08:51:37	09:32:42	09:32:42:064	103	1	Expectancy_rating	fixation	0	5	1000	0	0	1	995	1	+	-15	0	0	0	0	0	0
8	2023-03-31	08:51:37	09:32:45	09:32:45:066	103	2	Expectancy_rating	expectancy_rating	0	500	0	0	70	0	2980	1	When you saw the <b>object</b>,   to what <b>degree (0-100%)</b> did you expect the <b>unpleasant sound to occur</b>?	-12	32	Cue32.jpg	-12	0	0	0
8	2023-03-31	08:51:37	09:32:47	09:32:47:065	104	1	Expectancy_rating	fixation	0	5	1500	0	0	1	1495	1	+	-14	0	0	0	0	0	0
8	2023-03-31	08:51:37	09:32:51	09:32:51:533	104	2	Expectancy_rating	expectancy_rating	0	1500	0	0	0	0	4444	1	When you saw the <b>object</b>,   to what <b>degree (0-100%)</b> did you expect the <b>unpleasant sound to occur</b>?	-12	38	Cue38.jpg	-12	0	0	0
8	2023-03-31	08:51:37	09:32:53	09:32:53:531	105	1	Expectancy_rating	fixation	0	5	500	0	0	1	495	1	+	-14	0	0	0	0	0	0
8	2023-03-31	08:51:37	09:33:02	09:33:02:433	105	2	Expectancy_rating	expectancy_rating	0	500	0	0	50	0	8873	1	When you saw the <b>object</b>,   to what <b>degree (0-100%)</b> did you expect the <b>unpleasant sound to occur</b>?	-11	1	Cue1.jpg	-11	0	0	0
8	2023-03-31	08:51:37	09:33:04	09:33:04:932	106	1	Expectancy_rating	fixation	0	5	1000	0	0	1	995	1	+	-12	0	0	0	0	0	0
8	2023-03-31	08:51:37	09:33:08	09:33:08:051	106	2	Expectancy_rating	expectancy_rating	0	1000	0	0	0	0	4088	1	When you saw the <b>object</b>,   to what <b>degree (0-100%)</b> did you expect the <b>unpleasant sound to occur</b>?	-8	2	Cue2.jpg	-8	0	0	0
8	2023-03-31	08:51:37	09:33:10	09:33:10:049	107	1	Expectancy_rating	fixation	0	5	1000	0	0	1	995	1	+	-14	0	0	0	0	0	0
8	2023-03-31	08:51:37	09:33:13	09:33:13:601	107	2	Expectancy_rating	expectancy_rating	0	1500	0	0	60	0	3523	1	When you saw the <b>object</b>,   to what <b>degree (0-100%)</b> did you expect the <b>unpleasant sound to occur</b>?	-11	8	Cue8.jpg	-11	0	0	0
8	2023-03-31	08:51:37	09:33:16	09:33:16:600	108	1	Expectancy_rating	fixation	0	5	1500	0	0	1	1495	1	+	-14	0	0	0	0	0	0
8	2023-03-31	08:51:37	09:33:19	09:33:19:819	108	2	Expectancy_rating	expectancy_rating	0	1500	0	0	0	0	3189	1	When you saw the <b>object</b>,   to what <b>degree (0-100%)</b> did you expect the <b>unpleasant sound to occur</b>?	-12	25	Cue25.jpg	-12	0	0	0
8	2023-03-31	08:51:37	09:33:21	09:33:21:817	109	1	Expectancy_rating	fixation	0	5	500	0	0	1	495	1	+	-14	0	0	0	0	0	0
8	2023-03-31	08:51:37	09:33:28	09:33:28:502	109	2	Expectancy_rating	expectancy_rating	0	500	0	0	50	0	6652	1	When you saw the <b>object</b>,   to what <b>degree (0-100%)</b> did you expect the <b>unpleasant sound to occur</b>?	-16	26	Cue26.jpg	-16	0	0	0
8	2023-03-31	08:51:37	09:33:29	09:33:29:500	110	1	Expectancy_rating	fixation	0	5	500	0	0	1	495	1	+	-14	0	0	0	0	0	0
8	2023-03-31	08:51:37	09:33:32	09:33:32:269	110	2	Expectancy_rating	expectancy_rating	0	1000	0	0	60	0	2744	1	When you saw the <b>object</b>,   to what <b>degree (0-100%)</b> did you expect the <b>unpleasant sound to occur</b>?	-9	29	Cue29.jpg	-9	0	0	0
8	2023-03-31	08:51:37	09:33:34	09:33:34:267	111	1	Expectancy_rating	fixation	0	5	1000	0	0	1	995	1	+	-14	0	0	0	0	0	0
8	2023-03-31	08:51:37	09:33:37	09:33:37:102	111	2	Expectancy_rating	expectancy_rating	0	1500	0	0	0	0	2809	1	When you saw the <b>object</b>,   to what <b>degree (0-100%)</b> did you expect the <b>unpleasant sound to occur</b>?	-11	34	Cue34.jpg	-11	0	0	0
8	2023-03-31	08:51:37	09:33:40	09:33:40:101	112	1	Expectancy_rating	fixation	0	5	1500	0	0	1	1495	1	+	-14	0	0	0	0	0	0
8	2023-03-31	08:51:37	09:33:44	09:33:44:536	112	2	Expectancy_rating	expectancy_rating	0	1000	0	0	20	0	4383	1	When you saw the <b>object</b>,   to what <b>degree (0-100%)</b> did you expect the <b>unpleasant sound to occur</b>?	-11	7	Cue7.jpg	-11	0	0	0
8	2023-03-31	08:51:37	09:33:46	09:33:46:018	113	1	Expectancy_rating	fixation	0	5	500	0	0	1	495	1	+	-14	0	0	0	0	0	0
8	2023-03-31	08:51:37	09:33:50	09:33:50:502	113	2	Expectancy_rating	expectancy_rating	0	500	0	0	90	0	4434	1	When you saw the <b>object</b>,   to what <b>degree (0-100%)</b> did you expect the <b>unpleasant sound to occur</b>?	-11	16	Cue16.jpg	-11	0	0	0
8	2023-03-31	08:51:37	09:34:06	09:34:06:022	114	1	continue_TNT	continue_TNT	0	5	0	0	0	0	15000	1	<center> <br><br><br> We will now continue with the next block of the attention task.   <br><br><br><center>Keep your fingers balanced on the <b>1, 2 and 3 </b>on the keyboard throughout the task   <br><br>to give the rating how well you were <b>able to think</b> or <b>not think</b> (1 = NEVER, 2 = BRIEFLY, 3 = OFTEN).  <br><br><br><br> <b>Press</b> the <b>button</b> on the <b>watch</b> for 1 second before you start!	-16	0	0	0	0	0	0
8	2023-03-31	08:51:37	09:34:07	09:34:07:023	115	1	TNT_Think_CSm	fixation	0	5	1000	0	0	1	995	1	+	-8	0	0	0	0	0	0
8	2023-03-31	08:51:37	09:34:08	09:34:08:039	115	2	TNT_Think_CSm	Think	0	5	0	0	0	0	1000	1	THINK	-16	0	0	0	0	0	0
8	2023-03-31	08:51:37	09:34:13	09:34:13:056	115	3	TNT_Think_CSm	TNT_Think_CSm	0	5	0	0	0	0	5000	4	Cue30.jpg	-16	0	0	0	0	0	0
8	2023-03-31	08:51:37	09:34:14	09:34:14:376	115	4	TNT_Think_CSm	Intrusion	0	500	3000	0	4	1	1303	1	How <b>often</b> did you <b>think</b> about the <b>scene</b>?   <center><br><b>NEVER (1)    BRIEFLY (2)   OFTEN (3) </b>	-16	0	0	0	0	0	0
8	2023-03-31	08:51:37	09:34:17	09:34:17:560	116	1	TNT_NoThink_CSp	fixation	0	5	1500	0	0	1	1495	1	+	-16	0	0	0	0	0	0
8	2023-03-31	08:51:37	09:34:18	09:34:18:573	116	2	TNT_NoThink_CSp	NoThink	0	5	0	0	0	0	1000	1	DON'T THINK	-16	0	0	0	0	0	0
8	2023-03-31	08:51:37	09:34:23	09:34:23:590	116	3	TNT_NoThink_CSp	TNT_NoThink_CSp	0	5	0	0	0	0	5000	6	Cue16.jpg	-16	0	0	0	0	0	0
8	2023-03-31	08:51:37	09:34:24	09:34:24:040	116	4	TNT_NoThink_CSp	Intrusion	0	1000	3000	0	2	1	433	1	How <b>often</b> did you <b>think</b> about the <b>scene</b>?   <center><br><b>NEVER (1)    BRIEFLY (2)   OFTEN (3) </b>	-16	0	0	0	0	0	0
8	2023-03-31	08:51:37	09:34:27	09:34:27:594	117	1	TNT_NoThink_CSm	fixation	0	5	1000	0	0	1	995	1	+	-1	0	0	0	0	0	0
8	2023-03-31	08:51:37	09:34:28	09:34:28:607	117	2	TNT_NoThink_CSm	NoThink	0	5	0	0	0	0	1000	1	DON'T THINK	-16	0	0	0	0	0	0
8	2023-03-31	08:51:37	09:34:33	09:34:33:624	117	3	TNT_NoThink_CSm	TNT_NoThink_CSm	0	5	0	0	0	0	5000	3	Cue23.jpg	-16	0	0	0	0	0	0
8	2023-03-31	08:51:37	09:34:34	09:34:34:120	117	4	TNT_NoThink_CSm	Intrusion	0	1500	3000	0	2	1	479	1	How <b>often</b> did you <b>think</b> about the <b>scene</b>?   <center><br><b>NEVER (1)    BRIEFLY (2)   OFTEN (3) </b>	-16	0	0	0	0	0	0
8	2023-03-31	08:51:37	09:34:37	09:34:37:128	118	1	TNT_Object_CSm	fixation	0	5	500	0	0	1	495	1	+	-8	0	0	0	0	0	0
8	2023-03-31	08:51:37	09:34:38	09:34:38:141	118	2	TNT_Object_CSm	Passive	0	5	0	0	0	0	1000	1	VIEW	-16	0	0	0	0	0	0
8	2023-03-31	08:51:37	09:34:43	09:34:43:158	118	3	TNT_Object_CSm	TNT_Object_CSm	0	500	0	0	0	0	5000	2	Object1.jpg	-16	0	0	0	0	0	0
8	2023-03-31	08:51:37	09:34:45	09:34:45:157	119	1	TNT_Think_CSp	fixation	0	5	1500	0	0	1	1495	1	+	-8	0	0	0	0	0	0
8	2023-03-31	08:51:37	09:34:46	09:34:46:175	119	2	TNT_Think_CSp	Think	0	5	0	0	0	0	1000	1	THINK	-16	0	0	0	0	0	0
8	2023-03-31	08:51:37	09:34:51	09:34:51:192	119	3	TNT_Think_CSp	TNT_Think_CSp	0	5	0	0	0	0	5000	3	Cue28.jpg	-16	0	0	0	0	0	0
8	2023-03-31	08:51:37	09:34:52	09:34:52:152	119	4	TNT_Think_CSp	Intrusion	0	1000	3000	0	4	1	943	1	How <b>often</b> did you <b>think</b> about the <b>scene</b>?   <center><br><b>NEVER (1)    BRIEFLY (2)   OFTEN (3) </b>	-16	0	0	0	0	0	0
8	2023-03-31	08:51:37	09:34:54	09:34:54:695	120	1	TNT_Think_CSm	fixation	0	5	500	0	0	1	495	1	+	-8	0	0	0	0	0	0
8	2023-03-31	08:51:37	09:34:55	09:34:55:709	120	2	TNT_Think_CSm	Think	0	5	0	0	0	0	1000	1	THINK	-16	0	0	0	0	0	0
8	2023-03-31	08:51:37	09:35:00	09:35:00:725	120	3	TNT_Think_CSm	TNT_Think_CSm	0	5	0	0	0	0	5000	5	Cue27.jpg	-16	0	0	0	0	0	0
8	2023-03-31	08:51:37	09:35:01	09:35:01:240	120	4	TNT_Think_CSm	Intrusion	0	1500	3000	0	4	1	497	1	How <b>often</b> did you <b>think</b> about the <b>scene</b>?   <center><br><b>NEVER (1)    BRIEFLY (2)   OFTEN (3) </b>	-16	0	0	0	0	0	0
8	2023-03-31	08:51:37	09:35:04	09:35:04:730	121	1	TNT_Think_CSm	fixation	0	5	1000	0	0	1	995	1	+	-16	0	0	0	0	0	0
8	2023-03-31	08:51:37	09:35:05	09:35:05:742	121	2	TNT_Think_CSm	Think	0	5	0	0	0	0	1000	1	THINK	-16	0	0	0	0	0	0
8	2023-03-31	08:51:37	09:35:10	09:35:10:759	121	3	TNT_Think_CSm	TNT_Think_CSm	0	5	0	0	0	0	5000	1	Cue3.jpg	-16	0	0	0	0	0	0
8	2023-03-31	08:51:37	09:35:11	09:35:11:640	121	4	TNT_Think_CSm	Intrusion	0	500	3000	0	4	1	863	1	How <b>often</b> did you <b>think</b> about the <b>scene</b>?   <center><br><b>NEVER (1)    BRIEFLY (2)   OFTEN (3) </b>	-16	0	0	0	0	0	0
8	2023-03-31	08:51:37	09:35:15	09:35:15:263	122	1	TNT_NoThink_CSm	fixation	0	5	1500	0	0	1	1495	1	+	-16	0	0	0	0	0	0
8	2023-03-31	08:51:37	09:35:16	09:35:16:277	122	2	TNT_NoThink_CSm	NoThink	0	5	0	0	0	0	1000	1	DON'T THINK	-16	0	0	0	0	0	0
8	2023-03-31	08:51:37	09:35:21	09:35:21:293	122	3	TNT_NoThink_CSm	TNT_NoThink_CSm	0	5	0	0	0	0	5000	1	Cue11.jpg	-16	0	0	0	0	0	0
8	2023-03-31	08:51:37	09:35:21	09:35:21:816	122	4	TNT_NoThink_CSm	Intrusion	0	500	3000	0	2	1	505	1	How <b>often</b> did you <b>think</b> about the <b>scene</b>?   <center><br><b>NEVER (1)    BRIEFLY (2)   OFTEN (3) </b>	-16	0	0	0	0	0	0
8	2023-03-31	08:51:37	09:35:25	09:35:25:797	123	1	TNT_Object_CSp	fixation	0	5	1500	0	0	1	1495	1	+	-16	0	0	0	0	0	0
8	2023-03-31	08:51:37	09:35:26	09:35:26:810	123	2	TNT_Object_CSp	Passive	0	5	0	0	0	0	1000	1	VIEW	-16	0	0	0	0	0	0
8	2023-03-31	08:51:37	09:35:31	09:35:31:827	123	3	TNT_Object_CSp	TNT_Object_CSp	0	1500	0	0	0	0	5000	2	Object7.jpg	-16	0	0	0	0	0	0
8	2023-03-31	08:51:37	09:35:34	09:35:34:327	124	1	TNT_Object_CSm	fixation	0	5	1000	0	0	1	995	1	+	-8	0	0	0	0	0	0
8	2023-03-31	08:51:37	09:35:35	09:35:35:344	124	2	TNT_Object_CSm	Passive	0	5	0	0	0	0	1000	1	VIEW	-16	0	0	0	0	0	0
8	2023-03-31	08:51:37	09:35:40	09:35:40:361	124	3	TNT_Object_CSm	TNT_Object_CSm	0	500	0	0	0	0	5000	4	Object2.jpg	-16	0	0	0	0	0	0
8	2023-03-31	08:51:37	09:35:41	09:35:41:360	125	1	TNT_Object_CSp	fixation	0	5	500	0	0	1	495	1	+	-8	0	0	0	0	0	0
8	2023-03-31	08:51:37	09:35:42	09:35:42:378	125	2	TNT_Object_CSp	Passive	0	5	0	0	0	0	1000	1	VIEW	-16	0	0	0	0	0	0
8	2023-03-31	08:51:37	09:35:47	09:35:47:395	125	3	TNT_Object_CSp	TNT_Object_CSp	0	1500	0	0	0	0	5000	4	Object4.jpg	-16	0	0	0	0	0	0
8	2023-03-31	08:51:37	09:35:50	09:35:50:394	126	1	TNT_NoThink_CSp	fixation	0	5	1500	0	0	1	1495	1	+	-8	0	0	0	0	0	0
8	2023-03-31	08:51:37	09:35:51	09:35:51:412	126	2	TNT_NoThink_CSp	NoThink	0	5	0	0	0	0	1000	1	DON'T THINK	-16	0	0	0	0	0	0
8	2023-03-31	08:51:37	09:35:56	09:35:56:428	126	3	TNT_NoThink_CSp	TNT_NoThink_CSp	0	5	0	0	0	0	5000	1	Cue22.jpg	-16	0	0	0	0	0	0
8	2023-03-31	08:51:37	09:35:56	09:35:56:872	126	4	TNT_NoThink_CSp	Intrusion	0	1000	3000	0	2	1	426	1	How <b>often</b> did you <b>think</b> about the <b>scene</b>?   <center><br><b>NEVER (1)    BRIEFLY (2)   OFTEN (3) </b>	-16	0	0	0	0	0	0
8	2023-03-31	08:51:37	09:36:00	09:36:00:432	127	1	TNT_NoThink_CSp	fixation	0	5	1000	0	0	1	995	1	+	-16	0	0	0	0	0	0
8	2023-03-31	08:51:37	09:36:01	09:36:01:446	127	2	TNT_NoThink_CSp	NoThink	0	5	0	0	0	0	1000	1	DON'T THINK	-16	0	0	0	0	0	0
8	2023-03-31	08:51:37	09:36:06	09:36:06:463	127	3	TNT_NoThink_CSp	TNT_NoThink_CSp	0	5	0	0	0	0	5000	2	Cue12.jpg	-16	0	0	0	0	0	0
8	2023-03-31	08:51:37	09:36:07	09:36:07:064	127	4	TNT_NoThink_CSp	Intrusion	0	1500	3000	0	2	1	584	1	How <b>often</b> did you <b>think</b> about the <b>scene</b>?   <center><br><b>NEVER (1)    BRIEFLY (2)   OFTEN (3) </b>	-16	0	0	0	0	0	0
8	2023-03-31	08:51:37	09:36:10	09:36:10:966	128	1	TNT_Think_CSm	fixation	0	5	500	0	0	1	495	1	+	-16	0	0	0	0	0	0
8	2023-03-31	08:51:37	09:36:11	09:36:11:979	128	2	TNT_Think_CSm	Think	0	5	0	0	0	0	1000	1	THINK	-16	0	0	0	0	0	0
8	2023-03-31	08:51:37	09:36:16	09:36:16:996	128	3	TNT_Think_CSm	TNT_Think_CSm	0	5	0	0	0	0	5000	3	Cue9.jpg	-16	0	0	0	0	0	0
8	2023-03-31	08:51:37	09:36:16	09:36:16:696	128	4	TNT_Think_CSm	Intrusion	0	1000	3000	0	4	1	682	1	How <b>often</b> did you <b>think</b> about the <b>scene</b>?   <center><br><b>NEVER (1)    BRIEFLY (2)   OFTEN (3) </b>	-16	0	0	0	0	0	0
8	2023-03-31	08:51:37	09:36:20	09:36:20:00	129	1	TNT_Think_CSm	fixation	0	5	1000	0	0	1	995	1	+	-16	0	0	0	0	0	0
8	2023-03-31	08:51:37	09:36:21	09:36:21:013	129	2	TNT_Think_CSm	Think	0	5	0	0	0	0	1000	1	THINK	-16	0	0	0	0	0	0
8	2023-03-31	08:51:37	09:36:26	09:36:26:030	129	3	TNT_Think_CSm	TNT_Think_CSm	0	5	0	0	0	0	5000	2	Cue25.jpg	-16	0	0	0	0	0	0
8	2023-03-31	08:51:37	09:36:27	09:36:27:538	129	4	TNT_Think_CSm	Intrusion	0	1500	3000	0	0	0	1500	1	How <b>often</b> did you <b>think</b> about the <b>scene</b>?   <center><br><b>NEVER (1)    BRIEFLY (2)   OFTEN (3) </b>	-16	0	0	0	0	0	0
8	2023-03-31	08:51:37	09:36:29	09:36:29:534	130	1	TNT_Think_CSp	fixation	0	5	500	0	0	1	495	1	+	-16	0	0	0	0	0	0
8	2023-03-31	08:51:37	09:36:30	09:36:30:547	130	2	TNT_Think_CSp	Think	0	5	0	0	0	0	1000	1	THINK	-16	0	0	0	0	0	0
8	2023-03-31	08:51:37	09:36:35	09:36:35:564	130	3	TNT_Think_CSp	TNT_Think_CSp	0	5	0	0	0	0	5000	5	Cue17.jpg	-16	0	0	0	0	0	0
8	2023-03-31	08:51:37	09:36:36	09:36:36:376	130	4	TNT_Think_CSp	Intrusion	0	500	3000	0	4	1	794	1	How <b>often</b> did you <b>think</b> about the <b>scene</b>?   <center><br><b>NEVER (1)    BRIEFLY (2)   OFTEN (3) </b>	-16	0	0	0	0	0	0
8	2023-03-31	08:51:37	09:36:40	09:36:40:068	131	1	TNT_NoThink_CSp	fixation	0	5	1500	0	0	1	1495	1	+	-16	0	0	0	0	0	0
8	2023-03-31	08:51:37	09:36:41	09:36:41:081	131	2	TNT_NoThink_CSp	NoThink	0	5	0	0	0	0	1000	1	DON'T THINK	-16	0	0	0	0	0	0
8	2023-03-31	08:51:37	09:36:46	09:36:46:098	131	3	TNT_NoThink_CSp	TNT_NoThink_CSp	0	5	0	0	0	0	5000	4	Cue29.jpg	-16	0	0	0	0	0	0
8	2023-03-31	08:51:37	09:36:46	09:36:46:632	131	4	TNT_NoThink_CSp	Intrusion	0	1000	3000	0	2	1	517	1	How <b>often</b> did you <b>think</b> about the <b>scene</b>?   <center><br><b>NEVER (1)    BRIEFLY (2)   OFTEN (3) </b>	-16	0	0	0	0	0	0
8	2023-03-31	08:51:37	09:36:49	09:36:49:601	132	1	TNT_Think_CSp	fixation	0	5	500	0	0	1	495	1	+	-16	0	0	0	0	0	0
8	2023-03-31	08:51:37	09:36:50	09:36:50:615	132	2	TNT_Think_CSp	Think	0	5	0	0	0	0	1000	1	THINK	-16	0	0	0	0	0	0
8	2023-03-31	08:51:37	09:36:55	09:36:55:632	132	3	TNT_Think_CSp	TNT_Think_CSp	0	5	0	0	0	0	5000	1	Cue24.jpg	-16	0	0	0	0	0	0
8	2023-03-31	08:51:37	09:36:56	09:36:56:456	132	4	TNT_Think_CSp	Intrusion	0	1500	3000	0	4	1	807	1	How <b>often</b> did you <b>think</b> about the <b>scene</b>?   <center><br><b>NEVER (1)    BRIEFLY (2)   OFTEN (3) </b>	-16	0	0	0	0	0	0
8	2023-03-31	08:51:37	09:37:00	09:37:00:136	133	1	TNT_Object_CSp	fixation	0	5	1500	0	0	1	1495	1	+	-16	0	0	0	0	0	0
