subject	date	time	currenttime	currenttime_plus_ms	blocknum	trialnum	blockcode	trialcode	pretrialpause	posttrialpause	trialduration	trialtimeout	response	correct	latency	stimulusnumber1	stimulusitem1	stimulusonset1	stimulusnumber2	stimulusitem2	stimulusonset2	stimulusnumber3	stimulusitem3	stimulusonset3
4	2023-03-24	08:52:59	08:53:32	08:53:32:134	2	1	PracticeItems_NoThink	fixation	0	5	1000	0	0	1	995	1	+	-16	0	0	0	0	0	0
4	2023-03-24	08:52:59	08:53:37	08:53:37:183	2	2	PracticeItems_NoThink	PracticeItems_NoThink	0	5	0	0	0	0	5000	1	+	-7	1	Cue39.jpg	-7	1	Target39.jpg	-7
4	2023-03-24	08:52:59	08:53:44	08:53:44:664	2	3	PracticeItems_NoThink	valence	0	5	0	0	15	0	7430	1	I found these images to be...	-1	0	0	0	0	0	0
4	2023-03-24	08:52:59	08:53:51	08:53:51:699	2	4	PracticeItems_NoThink	expectancy	0	500	0	0	0	0	6971	1	When you saw the <b>object-scene</b>,   to what <b>degree (0-100%)</b> did you expect the <b>unpleasant sound to occur</b>?	0	0	0	0	0	0	0
4	2023-03-24	08:52:59	08:53:53	08:53:53:698	3	1	Reminder_Think_CSp	fixation	0	5	1500	0	0	1	1495	1	+	-15	0	0	0	0	0	0
4	2023-03-24	08:52:59	08:53:58	08:53:58:718	3	2	Reminder_Think_CSp	Think_CSp	0	5	0	0	0	0	5000	1	+	-14	4	Cue28.jpg	-14	4	Target28.jpg	-14
4	2023-03-24	08:52:59	08:54:30	08:54:30:351	3	3	Reminder_Think_CSp	valence	0	5	0	0	32	0	31609	1	I found these images to be...	-16	0	0	0	0	0	0
4	2023-03-24	08:52:59	08:54:38	08:54:38:852	3	4	Reminder_Think_CSp	expectancy	0	1500	0	0	75	0	8461	1	When you saw the <b>object-scene</b>,   to what <b>degree (0-100%)</b> did you expect the <b>unpleasant sound to occur</b>?	-12	0	0	0	0	0	0
4	2023-03-24	08:52:59	08:54:40	08:54:40:852	4	1	Reminder_NoThink_CSp	fixation	0	5	500	0	0	1	495	1	+	-15	0	0	0	0	0	0
4	2023-03-24	08:52:59	08:54:45	08:54:45:869	4	2	Reminder_NoThink_CSp	NoThink_CSp	0	5	0	0	0	0	5000	1	+	-16	5	Cue3.jpg	-16	5	Target3.jpg	-16
4	2023-03-24	08:52:59	08:54:51	08:54:51:185	4	3	Reminder_NoThink_CSp	valence	0	5	0	0	28	0	5264	1	I found these images to be...	-16	0	0	0	0	0	0
4	2023-03-24	08:52:59	08:54:55	08:54:55:536	4	4	Reminder_NoThink_CSp	expectancy	0	1000	0	0	50	0	4306	1	When you saw the <b>object-scene</b>,   to what <b>degree (0-100%)</b> did you expect the <b>unpleasant sound to occur</b>?	-12	0	0	0	0	0	0
4	2023-03-24	08:52:59	08:54:57	08:54:57:039	5	1	Reminder_NoThink_CSp	fixation	0	5	500	0	0	1	495	1	+	-3	0	0	0	0	0	0
4	2023-03-24	08:52:59	08:55:02	08:55:02:056	5	2	Reminder_NoThink_CSp	NoThink_CSp	0	5	0	0	0	0	5000	1	+	-16	3	Cue15.jpg	-16	3	Target15.jpg	-16
4	2023-03-24	08:52:59	08:55:06	08:55:06:920	5	3	Reminder_NoThink_CSp	valence	0	5	0	0	30	0	4848	1	I found these images to be...	-16	0	0	0	0	0	0
4	2023-03-24	08:52:59	08:55:12	08:55:12:170	5	4	Reminder_NoThink_CSp	expectancy	0	1500	0	0	73	0	5204	1	When you saw the <b>object-scene</b>,   to what <b>degree (0-100%)</b> did you expect the <b>unpleasant sound to occur</b>?	-11	0	0	0	0	0	0
4	2023-03-24	08:52:59	08:55:14	08:55:14:669	6	1	Reminder_Baseline_CSm	fixation	0	5	1000	0	0	1	995	1	+	-15	0	0	0	0	0	0
4	2023-03-24	08:52:59	08:55:19	08:55:19:687	6	2	Reminder_Baseline_CSm	Baseline_CSm	0	5	0	0	0	0	5000	1	+	-13	6	Cue11.jpg	-13	6	Target11.jpg	-13
4	2023-03-24	08:52:59	08:55:23	08:55:23:722	6	3	Reminder_Baseline_CSm	valence	0	5	0	0	50	0	4013	1	I found these images to be...	-16	0	0	0	0	0	0
4	2023-03-24	08:52:59	08:55:29	08:55:29:222	6	4	Reminder_Baseline_CSm	expectancy	0	500	0	0	15	0	5459	1	When you saw the <b>object-scene</b>,   to what <b>degree (0-100%)</b> did you expect the <b>unpleasant sound to occur</b>?	-12	0	0	0	0	0	0
4	2023-03-24	08:52:59	08:55:31	08:55:31:221	7	1	Reminder_NoThink_CSp	fixation	0	5	1500	0	0	1	1495	1	+	-14	0	0	0	0	0	0
4	2023-03-24	08:52:59	08:55:36	08:55:36:238	7	2	Reminder_NoThink_CSp	NoThink_CSp	0	5	0	0	0	0	5000	1	+	-16	1	Cue22.jpg	-16	1	Target22.jpg	-16
4	2023-03-24	08:52:59	08:55:40	08:55:40:123	7	3	Reminder_NoThink_CSp	valence	0	5	0	0	18	0	3862	1	I found these images to be...	-16	0	0	0	0	0	0
4	2023-03-24	08:52:59	08:55:47	08:55:47:522	7	4	Reminder_NoThink_CSp	expectancy	0	1000	0	0	70	0	7354	1	When you saw the <b>object-scene</b>,   to what <b>degree (0-100%)</b> did you expect the <b>unpleasant sound to occur</b>?	-12	0	0	0	0	0	0
4	2023-03-24	08:52:59	08:55:50	08:55:50:023	8	1	Reminder_NoThink_CSm	fixation	0	5	1500	0	0	1	1495	1	+	-9	0	0	0	0	0	0
4	2023-03-24	08:52:59	08:55:55	08:55:55:042	8	2	Reminder_NoThink_CSm	NoThink_CSm	0	5	0	0	0	0	5000	1	+	-16	2	Cue36.jpg	-16	2	Target36.jpg	-16
4	2023-03-24	08:52:59	08:55:59	08:55:59:406	8	3	Reminder_NoThink_CSm	valence	0	5	0	0	8	0	4317	1	I found these images to be...	-16	0	0	0	0	0	0
4	2023-03-24	08:52:59	08:56:04	08:56:04:207	8	4	Reminder_NoThink_CSm	expectancy	0	1500	0	0	0	0	4765	1	When you saw the <b>object-scene</b>,   to what <b>degree (0-100%)</b> did you expect the <b>unpleasant sound to occur</b>?	-12	0	0	0	0	0	0
4	2023-03-24	08:52:59	08:56:06	08:56:06:706	9	1	Reminder_NoThink_CSp	fixation	0	5	1000	0	0	1	995	1	+	-15	0	0	0	0	0	0
4	2023-03-24	08:52:59	08:56:11	08:56:11:724	9	2	Reminder_NoThink_CSp	NoThink_CSp	0	5	0	0	0	0	5000	1	+	-16	4	Cue26.jpg	-16	4	Target26.jpg	-16
4	2023-03-24	08:52:59	08:56:16	08:56:16:341	9	3	Reminder_NoThink_CSp	valence	0	5	0	0	18	0	4593	1	I found these images to be...	-16	0	0	0	0	0	0
4	2023-03-24	08:52:59	08:56:20	08:56:20:741	9	4	Reminder_NoThink_CSp	expectancy	0	1000	0	0	90	0	4359	1	When you saw the <b>object-scene</b>,   to what <b>degree (0-100%)</b> did you expect the <b>unpleasant sound to occur</b>?	-12	0	0	0	0	0	0
4	2023-03-24	08:52:59	08:56:22	08:56:22:240	10	1	Reminder_Think_CSm	fixation	0	5	500	0	0	1	495	1	+	-15	0	0	0	0	0	0
4	2023-03-24	08:52:59	08:56:27	08:56:27:258	10	2	Reminder_Think_CSm	Think_CSm	0	5	0	0	0	0	5000	1	+	-14	3	Cue30.jpg	-14	3	Target30.jpg	-14
4	2023-03-24	08:52:59	08:56:32	08:56:32:242	10	3	Reminder_Think_CSm	valence	0	5	0	0	30	0	4962	1	I found these images to be...	-16	0	0	0	0	0	0
4	2023-03-24	08:52:59	08:56:34	08:56:34:958	10	4	Reminder_Think_CSm	expectancy	0	500	0	0	0	0	2650	1	When you saw the <b>object-scene</b>,   to what <b>degree (0-100%)</b> did you expect the <b>unpleasant sound to occur</b>?	-12	0	0	0	0	0	0
4	2023-03-24	08:52:59	08:56:36	08:56:36:442	11	1	Reminder_Think_CSp	fixation	0	5	1000	0	0	1	995	1	+	-14	0	0	0	0	0	0
4	2023-03-24	08:52:59	08:56:41	08:56:41:459	11	2	Reminder_Think_CSp	Think_CSp	0	5	0	0	0	0	5000	1	+	-16	6	Cue5.jpg	-16	6	Target5.jpg	-16
4	2023-03-24	08:52:59	08:56:48	08:56:48:077	11	3	Reminder_Think_CSp	valence	0	5	0	0	37	0	6594	1	I found these images to be...	-16	0	0	0	0	0	0
4	2023-03-24	08:52:59	08:56:53	08:56:53:243	11	4	Reminder_Think_CSp	expectancy	0	1500	0	0	76	0	5128	1	When you saw the <b>object-scene</b>,   to what <b>degree (0-100%)</b> did you expect the <b>unpleasant sound to occur</b>?	-12	0	0	0	0	0	0
4	2023-03-24	08:52:59	08:56:55	08:56:55:242	12	1	Reminder_NoThink_CSm	fixation	0	5	500	0	0	1	495	1	+	-15	0	0	0	0	0	0
4	2023-03-24	08:52:59	08:57:00	08:57:00:260	12	2	Reminder_NoThink_CSm	NoThink_CSm	0	5	0	0	0	0	5000	1	+	-13	3	Cue13.jpg	-13	3	Target13.jpg	-13
4	2023-03-24	08:52:59	08:57:04	08:57:04:495	12	3	Reminder_NoThink_CSm	valence	0	5	0	0	31	0	4209	1	I found these images to be...	-16	0	0	0	0	0	0
4	2023-03-24	08:52:59	08:57:09	08:57:09:545	12	4	Reminder_NoThink_CSm	expectancy	0	500	0	0	0	0	5014	1	When you saw the <b>object-scene</b>,   to what <b>degree (0-100%)</b> did you expect the <b>unpleasant sound to occur</b>?	-12	0	0	0	0	0	0
4	2023-03-24	08:52:59	08:57:11	08:57:11:543	13	1	Reminder_Think_CSm	fixation	0	5	1500	0	0	1	1495	1	+	-15	0	0	0	0	0	0
4	2023-03-24	08:52:59	08:57:16	08:57:16:561	13	2	Reminder_Think_CSm	Think_CSm	0	5	0	0	0	0	5000	1	+	-13	1	Cue1.jpg	-13	1	Target1.jpg	-13
4	2023-03-24	08:52:59	08:57:20	08:57:20:812	13	3	Reminder_Think_CSm	valence	0	5	0	0	21	0	4227	1	I found these images to be...	-16	0	0	0	0	0	0
4	2023-03-24	08:52:59	08:57:25	08:57:25:279	13	4	Reminder_Think_CSm	expectancy	0	1000	0	0	12	0	4425	1	When you saw the <b>object-scene</b>,   to what <b>degree (0-100%)</b> did you expect the <b>unpleasant sound to occur</b>?	-12	0	0	0	0	0	0
4	2023-03-24	08:52:59	08:57:26	08:57:26:778	14	1	Reminder_Baseline_CSp	fixation	0	5	500	0	0	1	495	1	+	-14	0	0	0	0	0	0
4	2023-03-24	08:52:59	08:57:31	08:57:31:796	14	2	Reminder_Baseline_CSp	Baseline_CSp	0	5	0	0	0	0	5000	1	+	-16	4	Cue4.jpg	-16	4	Target4.jpg	-16
4	2023-03-24	08:52:59	08:57:36	08:57:36:663	14	3	Reminder_Baseline_CSp	valence	0	5	0	0	31	0	4841	1	I found these images to be...	-16	0	0	0	0	0	0
4	2023-03-24	08:52:59	08:57:45	08:57:45:313	14	4	Reminder_Baseline_CSp	expectancy	0	1000	0	0	66	0	8605	1	When you saw the <b>object-scene</b>,   to what <b>degree (0-100%)</b> did you expect the <b>unpleasant sound to occur</b>?	-12	0	0	0	0	0	0
4	2023-03-24	08:52:59	08:57:47	08:57:47:313	15	1	Reminder_Baseline_CSm	fixation	0	5	1000	0	0	1	995	1	+	-15	0	0	0	0	0	0
4	2023-03-24	08:52:59	08:57:52	08:57:52:330	15	2	Reminder_Baseline_CSm	Baseline_CSm	0	5	0	0	0	0	5000	1	+	-14	1	Cue8.jpg	-14	1	Target8.jpg	-14
4	2023-03-24	08:52:59	08:57:57	08:57:57:564	15	3	Reminder_Baseline_CSm	valence	0	5	0	0	50	0	5203	1	I found these images to be...	-16	0	0	0	0	0	0
4	2023-03-24	08:52:59	08:58:00	08:58:00:464	15	4	Reminder_Baseline_CSm	expectancy	0	1500	0	0	0	0	2864	1	When you saw the <b>object-scene</b>,   to what <b>degree (0-100%)</b> did you expect the <b>unpleasant sound to occur</b>?	-12	0	0	0	0	0	0
4	2023-03-24	08:52:59	08:58:03	08:58:03:463	16	1	Reminder_Baseline_CSm	fixation	0	5	1500	0	0	1	1495	1	+	-15	0	0	0	0	0	0
4	2023-03-24	08:52:59	08:58:08	08:58:08:481	16	2	Reminder_Baseline_CSm	Baseline_CSm	0	5	0	0	0	0	5000	1	+	-14	2	Cue14.jpg	-14	2	Target14.jpg	-14
4	2023-03-24	08:52:59	08:58:15	08:58:15:915	16	3	Reminder_Baseline_CSm	valence	0	5	0	0	20	0	7404	1	I found these images to be...	-16	0	0	0	0	0	0
4	2023-03-24	08:52:59	08:58:24	08:58:24:949	16	4	Reminder_Baseline_CSm	expectancy	0	500	0	0	31	0	8985	1	When you saw the <b>object-scene</b>,   to what <b>degree (0-100%)</b> did you expect the <b>unpleasant sound to occur</b>?	-12	0	0	0	0	0	0
4	2023-03-24	08:52:59	08:58:26	08:58:26:450	17	1	Reminder_Baseline_CSp	fixation	0	5	1000	0	0	1	995	1	+	-13	0	0	0	0	0	0
4	2023-03-24	08:52:59	08:58:31	08:58:31:469	17	2	Reminder_Baseline_CSp	Baseline_CSp	0	5	0	0	0	0	5000	1	+	-16	1	Cue7.jpg	-16	1	Target7.jpg	-16
4	2023-03-24	08:52:59	08:58:36	08:58:36:933	17	3	Reminder_Baseline_CSp	valence	0	5	0	0	24	0	5434	1	I found these images to be...	-16	0	0	0	0	0	0
4	2023-03-24	08:52:59	08:58:41	08:58:41:434	17	4	Reminder_Baseline_CSp	expectancy	0	1500	0	0	95	0	4463	1	When you saw the <b>object-scene</b>,   to what <b>degree (0-100%)</b> did you expect the <b>unpleasant sound to occur</b>?	0	0	0	0	0	0	0
4	2023-03-24	08:52:59	08:58:43	08:58:43:433	18	1	Reminder_Objects_CSp	fixation	0	5	500	0	0	1	495	1	+	-15	0	0	0	0	0	0
4	2023-03-24	08:52:59	08:58:48	08:58:48:450	18	2	Reminder_Objects_CSp	Objects_CSp	0	5	0	0	0	0	5000	3	Object3.jpg	-14	0	0	0	0	0	0
4	2023-03-24	08:52:59	08:58:52	08:58:52:201	18	3	Reminder_Objects_CSp	expectancy_object	0	500	0	0	99	0	3730	1	When you saw the <b>object</b>,   to what <b>degree (0-100%)</b> did you expect the <b>unpleasant sound to occur</b>?	-16	0	0	0	0	0	0
4	2023-03-24	08:52:59	08:58:54	08:58:54:200	19	1	Reminder_Think_CSm	fixation	0	5	1500	0	0	1	1495	1	+	-15	0	0	0	0	0	0
4	2023-03-24	08:52:59	08:58:59	08:58:59:217	19	2	Reminder_Think_CSm	Think_CSm	0	5	0	0	0	0	5000	1	+	-16	2	Cue12.jpg	-16	2	Target12.jpg	-16
4	2023-03-24	08:52:59	08:59:06	08:59:06:768	19	3	Reminder_Think_CSm	valence	0	5	0	0	37	0	7531	1	I found these images to be...	-16	0	0	0	0	0	0
4	2023-03-24	08:52:59	08:59:09	08:59:09:968	19	4	Reminder_Think_CSm	expectancy	0	1000	0	0	0	0	3132	1	When you saw the <b>object-scene</b>,   to what <b>degree (0-100%)</b> did you expect the <b>unpleasant sound to occur</b>?	-12	0	0	0	0	0	0
4	2023-03-24	08:52:59	08:59:11	08:59:11:952	20	1	Reminder_Baseline_CSp	fixation	0	5	1000	0	0	1	995	1	+	-15	0	0	0	0	0	0
4	2023-03-24	08:52:59	08:59:16	08:59:16:968	20	2	Reminder_Baseline_CSp	Baseline_CSp	0	5	0	0	0	0	5000	1	+	-16	3	Cue24.jpg	-16	3	Target24.jpg	-16
4	2023-03-24	08:52:59	08:59:20	08:59:20:569	20	3	Reminder_Baseline_CSp	valence	0	5	0	0	36	0	3572	1	I found these images to be...	-16	0	0	0	0	0	0
4	2023-03-24	08:52:59	08:59:24	08:59:24:386	20	4	Reminder_Baseline_CSp	expectancy	0	500	0	0	92	0	3771	1	When you saw the <b>object-scene</b>,   to what <b>degree (0-100%)</b> did you expect the <b>unpleasant sound to occur</b>?	0	0	0	0	0	0	0
4	2023-03-24	08:52:59	08:59:26	08:59:26:385	21	1	PracticeItems_Think	fixation	0	5	1500	0	0	1	1495	1	+	-15	0	0	0	0	0	0
4	2023-03-24	08:52:59	08:59:31	08:59:31:403	21	2	PracticeItems_Think	PracticeItems_Think	0	5	0	0	0	0	5000	1	+	-16	2	Cue38.jpg	-16	2	Target38.jpg	-16
4	2023-03-24	08:52:59	08:59:35	08:59:35:520	21	3	PracticeItems_Think	valence	0	5	0	0	8	0	4065	1	I found these images to be...	-16	0	0	0	0	0	0
4	2023-03-24	08:52:59	08:59:40	08:59:40:804	21	4	PracticeItems_Think	expectancy	0	1500	0	0	0	0	5236	1	When you saw the <b>object-scene</b>,   to what <b>degree (0-100%)</b> did you expect the <b>unpleasant sound to occur</b>?	-10	0	0	0	0	0	0
4	2023-03-24	08:52:59	08:59:42	08:59:42:803	22	1	Reminder_NoThink_CSm	fixation	0	5	500	0	0	1	495	1	+	-15	0	0	0	0	0	0
4	2023-03-24	08:52:59	08:59:47	08:59:47:821	22	2	Reminder_NoThink_CSm	NoThink_CSm	0	5	0	0	0	0	5000	1	+	-13	5	Cue16.jpg	-13	5	Target16.jpg	-13
4	2023-03-24	08:52:59	08:59:50	08:59:50:154	22	3	Reminder_NoThink_CSm	valence	0	5	0	0	44	0	2304	1	I found these images to be...	-16	0	0	0	0	0	0
4	2023-03-24	08:52:59	08:59:54	08:59:54:021	22	4	Reminder_NoThink_CSm	expectancy	0	1000	0	0	50	0	3826	1	When you saw the <b>object-scene</b>,   to what <b>degree (0-100%)</b> did you expect the <b>unpleasant sound to occur</b>?	-10	0	0	0	0	0	0
4	2023-03-24	08:52:59	08:59:56	08:59:56:520	23	1	PracticeItems_NoThink	fixation	0	5	1500	0	0	1	1495	1	+	-15	0	0	0	0	0	0
4	2023-03-24	08:52:59	09:00:01	09:00:01:538	23	2	PracticeItems_NoThink	PracticeItems_NoThink	0	5	0	0	0	0	5000	1	+	-14	2	Cue40.jpg	-14	2	Target40.jpg	-14
4	2023-03-24	08:52:59	09:00:05	09:00:05:739	23	3	PracticeItems_NoThink	valence	0	5	0	0	5	0	4171	1	I found these images to be...	-16	0	0	0	0	0	0
4	2023-03-24	08:52:59	09:00:09	09:00:09:122	23	4	PracticeItems_NoThink	expectancy	0	500	0	0	84	0	3337	1	When you saw the <b>object-scene</b>,   to what <b>degree (0-100%)</b> did you expect the <b>unpleasant sound to occur</b>?	-12	0	0	0	0	0	0
4	2023-03-24	08:52:59	09:00:10	09:00:10:621	24	1	Reminder_Think_CSp	fixation	0	5	1000	0	0	1	995	1	+	-13	0	0	0	0	0	0
4	2023-03-24	08:52:59	09:00:15	09:00:15:641	24	2	Reminder_Think_CSp	Think_CSp	0	5	0	0	0	0	5000	1	+	-6	5	Cue18.jpg	-6	5	Target18.jpg	-6
4	2023-03-24	08:52:59	09:00:19	09:00:19:156	24	3	Reminder_Think_CSp	valence	0	5	0	0	7	0	3486	1	I found these images to be...	-16	0	0	0	0	0	0
4	2023-03-24	08:52:59	09:00:27	09:00:27:623	24	4	Reminder_Think_CSp	expectancy	0	500	0	0	65	0	8400	1	When you saw the <b>object-scene</b>,   to what <b>degree (0-100%)</b> did you expect the <b>unpleasant sound to occur</b>?	-12	0	0	0	0	0	0
4	2023-03-24	08:52:59	09:00:28	09:00:28:605	25	1	PracticeItems_Think	fixation	0	5	500	0	0	1	495	1	+	-15	0	0	0	0	0	0
4	2023-03-24	08:52:59	09:00:33	09:00:33:623	25	2	PracticeItems_Think	PracticeItems_Think	0	5	0	0	0	0	5000	1	+	-13	1	Cue37.jpg	-13	1	Target37.jpg	-13
4	2023-03-24	08:52:59	09:00:38	09:00:38:358	25	3	PracticeItems_Think	valence	0	5	0	0	32	0	4701	1	I found these images to be...	-16	0	0	0	0	0	0
4	2023-03-24	08:52:59	09:00:40	09:00:40:724	25	4	PracticeItems_Think	expectancy	0	1000	0	0	0	0	2327	1	When you saw the <b>object-scene</b>,   to what <b>degree (0-100%)</b> did you expect the <b>unpleasant sound to occur</b>?	-12	0	0	0	0	0	0
4	2023-03-24	08:52:59	09:00:42	09:00:42:223	26	1	Reminder_NoThink_CSm	fixation	0	5	500	0	0	1	495	1	+	-15	0	0	0	0	0	0
4	2023-03-24	08:52:59	09:00:47	09:00:47:241	26	2	Reminder_NoThink_CSm	NoThink_CSm	0	5	0	0	0	0	5000	1	+	-16	1	Cue32.jpg	-16	1	Target32.jpg	-16
4	2023-03-24	08:52:59	09:00:50	09:00:50:726	26	3	Reminder_NoThink_CSm	valence	0	5	0	0	26	0	3459	1	I found these images to be...	-16	0	0	0	0	0	0
4	2023-03-24	08:52:59	09:00:53	09:00:53:242	26	4	Reminder_NoThink_CSm	expectancy	0	1500	0	0	0	0	2479	1	When you saw the <b>object-scene</b>,   to what <b>degree (0-100%)</b> did you expect the <b>unpleasant sound to occur</b>?	-12	0	0	0	0	0	0
4	2023-03-24	08:52:59	09:00:55	09:00:55:741	27	1	Reminder_Objects_CSp	fixation	0	5	1000	0	0	1	995	1	+	-15	0	0	0	0	0	0
4	2023-03-24	08:52:59	09:01:00	09:01:00:759	27	2	Reminder_Objects_CSp	Objects_CSp	0	5	0	0	0	0	5000	4	Object1.jpg	-14	0	0	0	0	0	0
4	2023-03-24	08:52:59	09:01:05	09:01:05:810	27	3	Reminder_Objects_CSp	expectancy_object	0	1500	0	0	100	0	5030	1	When you saw the <b>object</b>,   to what <b>degree (0-100%)</b> did you expect the <b>unpleasant sound to occur</b>?	-16	0	0	0	0	0	0
4	2023-03-24	08:52:59	09:01:08	09:01:08:809	28	1	Reminder_Baseline_CSp	fixation	0	5	1500	0	0	1	1495	1	+	-15	0	0	0	0	0	0
4	2023-03-24	08:52:59	09:01:13	09:01:13:826	28	2	Reminder_Baseline_CSp	Baseline_CSp	0	5	0	0	0	0	5000	1	+	-16	6	Cue31.jpg	-16	6	Target31.jpg	-16
4	2023-03-24	08:52:59	09:01:21	09:01:21:226	28	3	Reminder_Baseline_CSp	valence	0	5	0	0	9	0	7370	1	I found these images to be...	-16	0	0	0	0	0	0
4	2023-03-24	08:52:59	09:01:25	09:01:25:860	28	4	Reminder_Baseline_CSp	expectancy	0	1500	0	0	70	0	4586	1	When you saw the <b>object-scene</b>,   to what <b>degree (0-100%)</b> did you expect the <b>unpleasant sound to occur</b>?	-9	0	0	0	0	0	0
4	2023-03-24	08:52:59	09:01:27	09:01:27:859	29	1	Reminder_Baseline_CSm	fixation	0	5	500	0	0	1	495	1	+	-15	0	0	0	0	0	0
4	2023-03-24	08:52:59	09:01:32	09:01:32:877	29	2	Reminder_Baseline_CSm	Baseline_CSm	0	5	0	0	0	0	5000	1	+	-13	4	Cue21.jpg	-13	4	Target21.jpg	-13
4	2023-03-24	08:52:59	09:01:38	09:01:38:028	29	3	Reminder_Baseline_CSm	valence	0	5	0	0	46	0	5119	1	I found these images to be...	-16	0	0	0	0	0	0
4	2023-03-24	08:52:59	09:01:40	09:01:40:294	29	4	Reminder_Baseline_CSm	expectancy	0	500	0	0	0	0	2200	1	When you saw the <b>object-scene</b>,   to what <b>degree (0-100%)</b> did you expect the <b>unpleasant sound to occur</b>?	-12	0	0	0	0	0	0
4	2023-03-24	08:52:59	09:01:42	09:01:42:277	30	1	Reminder_Objects_CSm	fixation	0	5	1500	0	0	1	1495	1	+	-14	0	0	0	0	0	0
4	2023-03-24	08:52:59	09:01:47	09:01:47:294	30	2	Reminder_Objects_CSm	Objects_CSm	0	5	0	0	0	0	5000	2	Object2.jpg	-16	0	0	0	0	0	0
4	2023-03-24	08:52:59	09:01:51	09:01:51:679	30	3	Reminder_Objects_CSm	expectancy_object	0	1000	0	0	0	0	4358	1	When you saw the <b>object</b>,   to what <b>degree (0-100%)</b> did you expect the <b>unpleasant sound to occur</b>?	-16	0	0	0	0	0	0
4	2023-03-24	08:52:59	09:01:53	09:01:53:680	31	1	Reminder_Think_CSm	fixation	0	5	1000	0	0	1	995	1	+	-9	0	0	0	0	0	0
4	2023-03-24	08:52:59	09:01:58	09:01:58:698	31	2	Reminder_Think_CSm	Think_CSm	0	5	0	0	0	0	5000	1	+	-16	5	Cue23.jpg	-16	5	Target23.jpg	-16
4	2023-03-24	08:52:59	09:02:02	09:02:02:796	31	3	Reminder_Think_CSm	valence	0	5	0	0	27	0	4069	1	I found these images to be...	-16	0	0	0	0	0	0
4	2023-03-24	08:52:59	09:02:03	09:02:03:696	31	4	Reminder_Think_CSm	expectancy	0	1000	0	0	50	0	864	1	When you saw the <b>object-scene</b>,   to what <b>degree (0-100%)</b> did you expect the <b>unpleasant sound to occur</b>?	-12	0	0	0	0	0	0
4	2023-03-24	08:52:59	09:02:06	09:02:06:195	32	1	Reminder_Baseline_CSp	fixation	0	5	1500	0	0	1	1495	1	+	-15	0	0	0	0	0	0
4	2023-03-24	08:52:59	09:02:11	09:02:11:213	32	2	Reminder_Baseline_CSp	Baseline_CSp	0	5	0	0	0	0	5000	1	+	-16	2	Cue29.jpg	-16	2	Target29.jpg	-16
4	2023-03-24	08:52:59	09:02:19	09:02:19:163	32	3	Reminder_Baseline_CSp	valence	0	5	0	0	38	0	7928	1	I found these images to be...	-16	0	0	0	0	0	0
4	2023-03-24	08:52:59	09:02:22	09:02:22:330	32	4	Reminder_Baseline_CSp	expectancy	0	1500	0	0	65	0	3121	1	When you saw the <b>object-scene</b>,   to what <b>degree (0-100%)</b> did you expect the <b>unpleasant sound to occur</b>?	-12	0	0	0	0	0	0
4	2023-03-24	08:52:59	09:02:24	09:02:24:329	33	1	Reminder_NoThink_CSm	fixation	0	5	500	0	0	1	495	1	+	-15	0	0	0	0	0	0
4	2023-03-24	08:52:59	09:02:29	09:02:29:347	33	2	Reminder_NoThink_CSm	NoThink_CSm	0	5	0	0	0	0	5000	1	+	-13	6	Cue35.jpg	-13	6	Target35.jpg	-13
4	2023-03-24	08:52:59	09:02:33	09:02:33:497	33	3	Reminder_NoThink_CSm	valence	0	5	0	0	44	0	4129	1	I found these images to be...	-16	0	0	0	0	0	0
4	2023-03-24	08:52:59	09:02:42	09:02:42:332	33	4	Reminder_NoThink_CSm	expectancy	0	1000	0	0	11	0	8788	1	When you saw the <b>object-scene</b>,   to what <b>degree (0-100%)</b> did you expect the <b>unpleasant sound to occur</b>?	-12	0	0	0	0	0	0
4	2023-03-24	08:52:59	09:02:44	09:02:44:332	34	1	Reminder_Baseline_CSm	fixation	0	5	1000	0	0	1	995	1	+	-13	0	0	0	0	0	0
4	2023-03-24	08:52:59	09:02:49	09:02:49:351	34	2	Reminder_Baseline_CSm	Baseline_CSm	0	5	0	0	0	0	5000	1	+	-16	3	Cue6.jpg	-16	3	Target6.jpg	-16
4	2023-03-24	08:52:59	09:03:01	09:03:01:099	34	3	Reminder_Baseline_CSm	valence	0	5	0	0	28	0	11728	1	I found these images to be...	-16	0	0	0	0	0	0
4	2023-03-24	08:52:59	09:03:06	09:03:06:867	34	4	Reminder_Baseline_CSm	expectancy	0	500	0	0	31	0	5729	1	When you saw the <b>object-scene</b>,   to what <b>degree (0-100%)</b> did you expect the <b>unpleasant sound to occur</b>?	-12	0	0	0	0	0	0
4	2023-03-24	08:52:59	09:03:08	09:03:08:866	35	1	Reminder_NoThink_CSp	fixation	0	5	1500	0	0	1	1495	1	+	-14	0	0	0	0	0	0
4	2023-03-24	08:52:59	09:03:13	09:03:13:884	35	2	Reminder_NoThink_CSp	NoThink_CSp	0	5	0	0	0	0	5000	1	+	-14	2	Cue20.jpg	-14	2	Target20.jpg	-14
4	2023-03-24	08:52:59	09:03:17	09:03:17:217	35	3	Reminder_NoThink_CSp	valence	0	5	0	0	12	0	3305	1	I found these images to be...	-16	0	0	0	0	0	0
4	2023-03-24	08:52:59	09:03:20	09:03:20:501	35	4	Reminder_NoThink_CSp	expectancy	0	1000	0	0	81	0	3243	1	When you saw the <b>object-scene</b>,   to what <b>degree (0-100%)</b> did you expect the <b>unpleasant sound to occur</b>?	-12	0	0	0	0	0	0
4	2023-03-24	08:52:59	09:03:22	09:03:22:00	36	1	Reminder_NoThink_CSm	fixation	0	5	500	0	0	1	495	1	+	-15	0	0	0	0	0	0
4	2023-03-24	08:52:59	09:03:27	09:03:27:018	36	2	Reminder_NoThink_CSm	NoThink_CSm	0	5	0	0	0	0	5000	1	+	-16	4	Cue27.jpg	-16	4	Target27.jpg	-16
4	2023-03-24	08:52:59	09:03:31	09:03:31:352	36	3	Reminder_NoThink_CSm	valence	0	5	0	0	27	0	4307	1	I found these images to be...	-16	0	0	0	0	0	0
4	2023-03-24	08:52:59	09:03:37	09:03:37:235	36	4	Reminder_NoThink_CSm	expectancy	0	500	0	0	25	0	5837	1	When you saw the <b>object-scene</b>,   to what <b>degree (0-100%)</b> did you expect the <b>unpleasant sound to occur</b>?	-12	0	0	0	0	0	0
4	2023-03-24	08:52:59	09:03:38	09:03:38:736	37	1	Reminder_Objects_CSp	fixation	0	5	1000	0	0	1	995	1	+	-9	0	0	0	0	0	0
4	2023-03-24	08:52:59	09:03:43	09:03:43:754	37	2	Reminder_Objects_CSp	Objects_CSp	0	5	0	0	0	0	5000	1	Object4.jpg	-16	0	0	0	0	0	0
4	2023-03-24	08:52:59	09:03:47	09:03:47:603	37	3	Reminder_Objects_CSp	expectancy_object	0	1000	0	0	91	0	3828	1	When you saw the <b>object</b>,   to what <b>degree (0-100%)</b> did you expect the <b>unpleasant sound to occur</b>?	-16	0	0	0	0	0	0
4	2023-03-24	08:52:59	09:03:50	09:03:50:102	38	1	Reminder_NoThink_CSp	fixation	0	5	1500	0	0	1	1495	1	+	-15	0	0	0	0	0	0
4	2023-03-24	08:52:59	09:03:55	09:03:55:119	38	2	Reminder_NoThink_CSp	NoThink_CSp	0	5	0	0	0	0	5000	1	+	-14	6	Cue34.jpg	-14	6	Target34.jpg	-14
4	2023-03-24	08:52:59	09:03:59	09:03:59:104	38	3	Reminder_NoThink_CSp	valence	0	5	0	0	32	0	3958	1	I found these images to be...	-16	0	0	0	0	0	0
4	2023-03-24	08:52:59	09:04:03	09:04:03:070	38	4	Reminder_NoThink_CSp	expectancy	0	1500	0	0	80	0	3917	1	When you saw the <b>object-scene</b>,   to what <b>degree (0-100%)</b> did you expect the <b>unpleasant sound to occur</b>?	-12	0	0	0	0	0	0
4	2023-03-24	08:52:59	09:04:05	09:04:05:069	39	1	Reminder_Think_CSp	fixation	0	5	500	0	0	1	495	1	+	-15	0	0	0	0	0	0
4	2023-03-24	08:52:59	09:04:10	09:04:10:087	39	2	Reminder_Think_CSp	Think_CSp	0	5	0	0	0	0	5000	1	+	-14	2	Cue25.jpg	-14	2	Target25.jpg	-14
4	2023-03-24	08:52:59	09:04:13	09:04:13:337	39	3	Reminder_Think_CSp	valence	0	5	0	0	16	0	3230	1	I found these images to be...	-16	0	0	0	0	0	0
4	2023-03-24	08:52:59	09:04:17	09:04:17:287	39	4	Reminder_Think_CSp	expectancy	0	1500	0	0	72	0	3883	1	When you saw the <b>object-scene</b>,   to what <b>degree (0-100%)</b> did you expect the <b>unpleasant sound to occur</b>?	-12	0	0	0	0	0	0
4	2023-03-24	08:52:59	09:04:19	09:04:19:770	40	1	Reminder_Baseline_CSp	fixation	0	5	1000	0	0	1	995	1	+	-15	0	0	0	0	0	0
4	2023-03-24	08:52:59	09:04:24	09:04:24:788	40	2	Reminder_Baseline_CSp	Baseline_CSp	0	5	0	0	0	0	5000	1	+	-14	5	Cue9.jpg	-14	5	Target9.jpg	-14
4	2023-03-24	08:52:59	09:04:27	09:04:27:872	40	3	Reminder_Baseline_CSp	valence	0	5	0	0	18	0	3057	1	I found these images to be...	-16	0	0	0	0	0	0
4	2023-03-24	08:52:59	09:04:31	09:04:31:289	40	4	Reminder_Baseline_CSp	expectancy	0	500	0	0	72	0	3373	1	When you saw the <b>object-scene</b>,   to what <b>degree (0-100%)</b> did you expect the <b>unpleasant sound to occur</b>?	-12	0	0	0	0	0	0
4	2023-03-24	08:52:59	09:04:33	09:04:33:289	41	1	Reminder_Think_CSp	fixation	0	5	1500	0	0	1	1495	1	+	-10	0	0	0	0	0	0
4	2023-03-24	08:52:59	09:04:38	09:04:38:308	41	2	Reminder_Think_CSp	Think_CSp	0	5	0	0	0	0	5000	1	+	-16	1	Cue2.jpg	-16	1	Target2.jpg	-16
4	2023-03-24	08:52:59	09:04:42	09:04:42:756	41	3	Reminder_Think_CSp	valence	0	5	0	0	9	0	4420	1	I found these images to be...	-16	0	0	0	0	0	0
4	2023-03-24	08:52:59	09:04:47	09:04:47:039	41	4	Reminder_Think_CSp	expectancy	0	1000	0	0	50	0	4217	1	When you saw the <b>object-scene</b>,   to what <b>degree (0-100%)</b> did you expect the <b>unpleasant sound to occur</b>?	-12	0	0	0	0	0	0
4	2023-03-24	08:52:59	09:04:49	09:04:49:021	42	1	Reminder_Think_CSp	fixation	0	5	1000	0	0	1	995	1	+	-15	0	0	0	0	0	0
4	2023-03-24	08:52:59	09:04:54	09:04:54:040	42	2	Reminder_Think_CSp	Think_CSp	0	5	0	0	0	0	5000	1	+	-14	3	Cue33.jpg	-14	3	Target33.jpg	-14
4	2023-03-24	08:52:59	09:04:57	09:04:57:924	42	3	Reminder_Think_CSp	valence	0	5	0	0	28	0	3854	1	I found these images to be...	-16	0	0	0	0	0	0
4	2023-03-24	08:52:59	09:05:03	09:05:03:557	42	4	Reminder_Think_CSp	expectancy	0	1500	0	0	66	0	5585	1	When you saw the <b>object-scene</b>,   to what <b>degree (0-100%)</b> did you expect the <b>unpleasant sound to occur</b>?	-12	0	0	0	0	0	0
4	2023-03-24	08:52:59	09:05:05	09:05:05:556	43	1	Reminder_Baseline_CSm	fixation	0	5	500	0	0	1	495	1	+	-15	0	0	0	0	0	0
4	2023-03-24	08:52:59	09:05:10	09:05:10:574	43	2	Reminder_Baseline_CSm	Baseline_CSm	0	5	0	0	0	0	5000	1	+	-14	5	Cue17.jpg	-14	5	Target17.jpg	-14
4	2023-03-24	08:52:59	09:05:14	09:05:14:024	43	3	Reminder_Baseline_CSm	valence	0	5	0	0	44	0	3400	1	I found these images to be...	-16	0	0	0	0	0	0
4	2023-03-24	08:52:59	09:05:17	09:05:17:875	43	4	Reminder_Baseline_CSm	expectancy	0	500	0	0	24	0	3812	1	When you saw the <b>object-scene</b>,   to what <b>degree (0-100%)</b> did you expect the <b>unpleasant sound to occur</b>?	-11	0	0	0	0	0	0
4	2023-03-24	08:52:59	09:05:19	09:05:19:874	44	1	Reminder_Objects_CSp	fixation	0	5	1500	0	0	1	1495	1	+	-15	0	0	0	0	0	0
4	2023-03-24	08:52:59	09:05:24	09:05:24:891	44	2	Reminder_Objects_CSp	Objects_CSp	0	5	0	0	0	0	5000	2	Object7.jpg	-16	0	0	0	0	0	0
4	2023-03-24	08:52:59	09:05:28	09:05:28:393	44	3	Reminder_Objects_CSp	expectancy_object	0	1500	0	0	68	0	3474	1	When you saw the <b>object</b>,   to what <b>degree (0-100%)</b> did you expect the <b>unpleasant sound to occur</b>?	-16	0	0	0	0	0	0
4	2023-03-24	08:52:59	09:05:30	09:05:30:392	45	1	Reminder_Objects_CSm	fixation	0	5	500	0	0	1	495	1	+	-14	0	0	0	0	0	0
4	2023-03-24	08:52:59	09:05:35	09:05:35:409	45	2	Reminder_Objects_CSm	Objects_CSm	0	5	0	0	0	0	5000	3	Object8.jpg	-16	0	0	0	0	0	0
4	2023-03-24	08:52:59	09:05:38	09:05:38:526	45	3	Reminder_Objects_CSm	expectancy_object	0	500	0	0	0	0	3085	1	When you saw the <b>object</b>,   to what <b>degree (0-100%)</b> did you expect the <b>unpleasant sound to occur</b>?	-16	0	0	0	0	0	0
4	2023-03-24	08:52:59	09:05:40	09:05:40:024	46	1	Reminder_Think_CSm	fixation	0	5	1000	0	0	1	995	1	+	-14	0	0	0	0	0	0
4	2023-03-24	08:52:59	09:05:45	09:05:45:043	46	2	Reminder_Think_CSm	Think_CSm	0	5	0	0	0	0	5000	1	+	-13	6	Cue19.jpg	-13	6	Target19.jpg	-13
4	2023-03-24	08:52:59	09:05:50	09:05:50:377	46	3	Reminder_Think_CSm	valence	0	5	0	0	18	0	5307	1	I found these images to be...	-16	0	0	0	0	0	0
4	2023-03-24	08:52:59	09:05:55	09:05:55:194	46	4	Reminder_Think_CSm	expectancy	0	1000	0	0	1	0	4772	1	When you saw the <b>object-scene</b>,   to what <b>degree (0-100%)</b> did you expect the <b>unpleasant sound to occur</b>?	-12	0	0	0	0	0	0
4	2023-03-24	08:52:59	09:05:57	09:05:57:193	47	1	Reminder_Think_CSm	fixation	0	5	1000	0	0	1	995	1	+	-14	0	0	0	0	0	0
4	2023-03-24	08:52:59	09:06:02	09:06:02:210	47	2	Reminder_Think_CSm	Think_CSm	0	5	0	0	0	0	5000	1	+	-16	4	Cue10.jpg	-16	4	Target10.jpg	-16
4	2023-03-24	08:52:59	09:06:05	09:06:05:945	47	3	Reminder_Think_CSm	valence	0	5	0	0	12	0	3715	1	I found these images to be...	-16	0	0	0	0	0	0
4	2023-03-24	08:52:59	09:06:10	09:06:10:061	47	4	Reminder_Think_CSm	expectancy	0	1000	0	0	1	0	4069	1	When you saw the <b>object-scene</b>,   to what <b>degree (0-100%)</b> did you expect the <b>unpleasant sound to occur</b>?	-12	0	0	0	0	0	0
4	2023-03-24	08:52:59	09:06:12	09:06:12:561	48	1	Reminder_Objects_CSm	fixation	0	5	1500	0	0	1	1495	1	+	-15	0	0	0	0	0	0
4	2023-03-24	08:52:59	09:06:17	09:06:17:580	48	2	Reminder_Objects_CSm	Objects_CSm	0	5	0	0	0	0	5000	4	Object5.jpg	-16	0	0	0	0	0	0
4	2023-03-24	08:52:59	09:06:20	09:06:20:146	48	3	Reminder_Objects_CSm	expectancy_object	0	1000	0	0	0	0	2539	1	When you saw the <b>object</b>,   to what <b>degree (0-100%)</b> did you expect the <b>unpleasant sound to occur</b>?	-16	0	0	0	0	0	0
4	2023-03-24	08:52:59	09:06:21	09:06:21:644	49	1	Reminder_Objects_CSm	fixation	0	5	500	0	0	1	495	1	+	-14	0	0	0	0	0	0
4	2023-03-24	08:52:59	09:06:26	09:06:26:662	49	2	Reminder_Objects_CSm	Objects_CSm	0	5	0	0	0	0	5000	1	Object6.jpg	-14	0	0	0	0	0	0
4	2023-03-24	08:52:59	09:06:29	09:06:29:445	49	3	Reminder_Objects_CSm	expectancy_object	0	500	0	0	0	0	2758	1	When you saw the <b>object</b>,   to what <b>degree (0-100%)</b> did you expect the <b>unpleasant sound to occur</b>?	-16	0	0	0	0	0	0
4	2023-03-24	08:52:59	09:10:51	09:10:51:502	2	1	Practice_NoThink	fixation	0	5	500	0	0	1	495	1	+	-8	0	0	0	0	0	0
4	2023-03-24	08:52:59	09:10:52	09:10:52:519	2	2	Practice_NoThink	NoThink	0	5	0	0	0	0	1000	1	DON'T THINK	-16	0	0	0	0	0	0
4	2023-03-24	08:52:59	09:10:57	09:10:57:535	2	3	Practice_NoThink	NoThinkCue	0	5	0	0	0	1	5000	2	Cue40.jpg	-16	0	0	0	0	0	0
4	2023-03-24	08:52:59	09:10:58	09:10:58:788	2	4	Practice_NoThink	Intrusion	0	1000	3000	0	80	1	1218	1	How <b>often</b> did you <b>think</b> about the <b>scene</b>?   <center><br><b>NEVER (1)    BRIEFLY (2)   OFTEN (3) </b>	-14	0	0	0	0	0	0
4	2023-03-24	08:52:59	09:11:01	09:11:01:540	3	1	Practice_NoThink	fixation	0	5	1000	0	0	1	995	1	+	-16	0	0	0	0	0	0
4	2023-03-24	08:52:59	09:11:02	09:11:02:553	3	2	Practice_NoThink	NoThink	0	5	0	0	0	0	1000	1	DON'T THINK	-16	0	0	0	0	0	0
4	2023-03-24	08:52:59	09:11:07	09:11:07:569	3	3	Practice_NoThink	NoThinkCue	0	5	0	0	0	1	5000	1	Cue39.jpg	-16	0	0	0	0	0	0
4	2023-03-24	08:52:59	09:11:09	09:11:09:077	3	4	Practice_NoThink	Intrusion	0	1500	3000	0	0	0	1500	1	How <b>often</b> did you <b>think</b> about the <b>scene</b>?   <center><br><b>NEVER (1)    BRIEFLY (2)   OFTEN (3) </b>	-16	0	0	0	0	0	0
4	2023-03-24	08:52:59	09:11:12	09:11:12:074	4	1	Practice_Think	fixation	0	5	1500	0	0	1	1495	1	+	-16	0	0	0	0	0	0
4	2023-03-24	08:52:59	09:11:13	09:11:13:087	4	2	Practice_Think	Think	0	5	0	0	0	0	1000	1	THINK	-16	0	0	0	0	0	0
4	2023-03-24	08:52:59	09:11:18	09:11:18:103	4	3	Practice_Think	ThinkCue	0	5	0	0	0	1	5000	1	Cue37.jpg	-16	0	0	0	0	0	0
4	2023-03-24	08:52:59	09:11:19	09:11:19:620	4	4	Practice_Think	Intrusion	0	500	3000	0	81	1	1499	1	How <b>often</b> did you <b>think</b> about the <b>scene</b>?   <center><br><b>NEVER (1)    BRIEFLY (2)   OFTEN (3) </b>	-16	0	0	0	0	0	0
4	2023-03-24	08:52:59	09:11:22	09:11:22:607	5	1	Practice_Think	fixation	0	5	1500	0	0	1	1495	1	+	-8	0	0	0	0	0	0
4	2023-03-24	08:52:59	09:11:23	09:11:23:620	5	2	Practice_Think	Think	0	5	0	0	0	0	1000	1	THINK	-16	0	0	0	0	0	0
4	2023-03-24	08:52:59	09:11:28	09:11:28:637	5	3	Practice_Think	ThinkCue	0	5	0	0	0	1	5000	2	Cue38.jpg	-16	0	0	0	0	0	0
4	2023-03-24	08:52:59	09:11:30	09:11:30:145	5	4	Practice_Think	Intrusion	0	1500	3000	0	0	0	1500	1	How <b>often</b> did you <b>think</b> about the <b>scene</b>?   <center><br><b>NEVER (1)    BRIEFLY (2)   OFTEN (3) </b>	-16	0	0	0	0	0	0
4	2023-03-24	08:52:59	09:14:34	09:14:34:293	6	1	Practice_Betweenblocks1	Practice_Betweenblocks1	0	5	0	0	57	1	182620	1	<center><br><br><br><br>This is the end of the first practice round. <br><br>There will be 2 more practice rounds.  <br><br> Please await further instruction from the experimenter.	-16	0	0	0	0	0	0
4	2023-03-24	08:52:59	09:14:35	09:14:35:296	7	1	Practice_NoThink	fixation	0	5	1000	0	0	1	995	1	+	-9	0	0	0	0	0	0
4	2023-03-24	08:52:59	09:14:36	09:14:36:316	7	2	Practice_NoThink	NoThink	0	5	0	0	0	0	1000	1	DON'T THINK	-16	0	0	0	0	0	0
4	2023-03-24	08:52:59	09:14:41	09:14:41:332	7	3	Practice_NoThink	NoThinkCue	0	5	0	0	0	1	5000	2	Cue40.jpg	-16	0	0	0	0	0	0
4	2023-03-24	08:52:59	09:14:42	09:14:42:724	7	4	Practice_NoThink	Intrusion	0	500	3000	0	80	1	1374	1	How <b>often</b> did you <b>think</b> about the <b>scene</b>?   <center><br><b>NEVER (1)    BRIEFLY (2)   OFTEN (3) </b>	-16	0	0	0	0	0	0
4	2023-03-24	08:52:59	09:14:44	09:14:44:836	8	1	Practice_Think	fixation	0	5	500	0	0	1	495	1	+	-8	0	0	0	0	0	0
4	2023-03-24	08:52:59	09:14:45	09:14:45:849	8	2	Practice_Think	Think	0	5	0	0	0	0	1000	1	THINK	-16	0	0	0	0	0	0
4	2023-03-24	08:52:59	09:14:50	09:14:50:866	8	3	Practice_Think	ThinkCue	0	5	0	0	0	1	5000	1	Cue37.jpg	-16	0	0	0	0	0	0
4	2023-03-24	08:52:59	09:14:52	09:14:52:468	8	4	Practice_Think	Intrusion	0	1000	3000	0	81	1	1584	1	How <b>often</b> did you <b>think</b> about the <b>scene</b>?   <center><br><b>NEVER (1)    BRIEFLY (2)   OFTEN (3) </b>	-16	0	0	0	0	0	0
4	2023-03-24	08:52:59	09:14:55	09:14:55:371	9	1	Practice_NoThink	fixation	0	5	1500	0	0	1	1495	1	+	-16	0	0	0	0	0	0
4	2023-03-24	08:52:59	09:14:56	09:14:56:384	9	2	Practice_NoThink	NoThink	0	5	0	0	0	0	1000	1	DON'T THINK	-16	0	0	0	0	0	0
4	2023-03-24	08:52:59	09:15:01	09:15:01:400	9	3	Practice_NoThink	NoThinkCue	0	5	0	0	0	1	5000	1	Cue39.jpg	-16	0	0	0	0	0	0
4	2023-03-24	08:52:59	09:15:02	09:15:02:068	9	4	Practice_NoThink	Intrusion	0	1500	3000	0	80	1	650	1	How <b>often</b> did you <b>think</b> about the <b>scene</b>?   <center><br><b>NEVER (1)    BRIEFLY (2)   OFTEN (3) </b>	-16	0	0	0	0	0	0
4	2023-03-24	08:52:59	09:15:04	09:15:04:904	10	1	Practice_Think	fixation	0	5	500	0	0	1	495	1	+	-5	0	0	0	0	0	0
4	2023-03-24	08:52:59	09:15:05	09:15:05:917	10	2	Practice_Think	Think	0	5	0	0	0	0	1000	1	THINK	-16	0	0	0	0	0	0
4	2023-03-24	08:52:59	09:15:10	09:15:10:934	10	3	Practice_Think	ThinkCue	0	5	0	0	0	1	5000	2	Cue38.jpg	-16	0	0	0	0	0	0
4	2023-03-24	08:52:59	09:15:11	09:15:11:925	10	4	Practice_Think	Intrusion	0	1000	3000	0	81	1	972	1	How <b>often</b> did you <b>think</b> about the <b>scene</b>?   <center><br><b>NEVER (1)    BRIEFLY (2)   OFTEN (3) </b>	-16	0	0	0	0	0	0
4	2023-03-24	08:52:59	09:16:21	09:16:21:412	11	1	Practice_Betweenblocks2	Practice_Betweenblocks2	0	5	0	0	57	1	67444	1	<center><br><br><br><br>This is the end of the second practice round. <br><br>There will be 1 more practice round.  <br><br> Please await further instruction from the experimenter.	-16	0	0	0	0	0	0
4	2023-03-24	08:52:59	09:16:22	09:16:22:414	12	1	Practice_NoThink	fixation	0	5	1000	0	0	1	995	1	+	-8	0	0	0	0	0	0
4	2023-03-24	08:52:59	09:16:23	09:16:23:422	12	2	Practice_NoThink	NoThink	0	5	0	0	0	0	1000	1	DON'T THINK	-16	0	0	0	0	0	0
4	2023-03-24	08:52:59	09:16:28	09:16:28:439	12	3	Practice_NoThink	NoThinkCue	0	5	0	0	0	1	5000	2	Cue40.jpg	-16	0	0	0	0	0	0
4	2023-03-24	08:52:59	09:16:28	09:16:28:884	12	4	Practice_NoThink	Intrusion	0	500	3000	0	80	1	427	1	How <b>often</b> did you <b>think</b> about the <b>scene</b>?   <center><br><b>NEVER (1)    BRIEFLY (2)   OFTEN (3) </b>	-16	0	0	0	0	0	0
4	2023-03-24	08:52:59	09:16:31	09:16:31:943	13	1	Practice_Think	fixation	0	5	500	0	0	1	495	1	+	-9	0	0	0	0	0	0
4	2023-03-24	08:52:59	09:16:33	09:16:33:956	13	2	Practice_Think	Think	0	5	0	0	0	0	1000	1	THINK	-16	0	0	0	0	0	0
4	2023-03-24	08:52:59	09:16:38	09:16:38:973	13	3	Practice_Think	ThinkCue	0	5	0	0	0	1	5000	1	Cue37.jpg	-16	0	0	0	0	0	0
4	2023-03-24	08:52:59	09:16:38	09:16:38:645	13	4	Practice_Think	Intrusion	0	500	3000	0	81	1	655	1	How <b>often</b> did you <b>think</b> about the <b>scene</b>?   <center><br><b>NEVER (1)    BRIEFLY (2)   OFTEN (3) </b>	-16	0	0	0	0	0	0
4	2023-03-24	08:52:59	09:16:42	09:16:42:477	14	1	Practice_Think	fixation	0	5	1500	0	0	1	1495	1	+	-8	0	0	0	0	0	0
4	2023-03-24	08:52:59	09:16:43	09:16:43:490	14	2	Practice_Think	Think	0	5	0	0	0	0	1000	1	THINK	-16	0	0	0	0	0	0
4	2023-03-24	08:52:59	09:16:48	09:16:48:507	14	3	Practice_Think	ThinkCue	0	5	0	0	0	1	5000	2	Cue38.jpg	-16	0	0	0	0	0	0
4	2023-03-24	08:52:59	09:16:49	09:16:49:508	14	4	Practice_Think	Intrusion	0	1500	3000	0	81	1	984	1	How <b>often</b> did you <b>think</b> about the <b>scene</b>?   <center><br><b>NEVER (1)    BRIEFLY (2)   OFTEN (3) </b>	-16	0	0	0	0	0	0
4	2023-03-24	08:52:59	09:16:52	09:16:52:511	15	1	Practice_NoThink	fixation	0	5	1000	0	0	1	995	1	+	-8	0	0	0	0	0	0
4	2023-03-24	08:52:59	09:16:53	09:16:53:524	15	2	Practice_NoThink	NoThink	0	5	0	0	0	0	1000	1	DON'T THINK	-16	0	0	0	0	0	0
4	2023-03-24	08:52:59	09:16:58	09:16:58:541	15	3	Practice_NoThink	NoThinkCue	0	5	0	0	0	1	5000	1	Cue39.jpg	-16	0	0	0	0	0	0
4	2023-03-24	08:52:59	09:17:00	09:17:00:500	15	4	Practice_NoThink	Intrusion	0	1000	3000	0	79	1	1943	1	How <b>often</b> did you <b>think</b> about the <b>scene</b>?   <center><br><b>NEVER (1)    BRIEFLY (2)   OFTEN (3) </b>	-16	0	0	0	0	0	0
4	2023-03-24	08:52:59	09:18:33	09:18:33:501	2	1	TNT_NoThink_CSp	fixation	0	5	1500	0	0	1	1495	1	+	-16	0	0	0	0	0	0
4	2023-03-24	08:52:59	09:18:34	09:18:34:519	2	2	TNT_NoThink_CSp	NoThink	0	5	0	0	0	0	1000	1	DON'T THINK	-16	0	0	0	0	0	0
4	2023-03-24	08:52:59	09:18:39	09:18:39:536	2	3	TNT_NoThink_CSp	TNT_NoThink_CSp	0	5	0	0	0	0	5000	5	Cue3.jpg	-16	0	0	0	0	0	0
4	2023-03-24	08:52:59	09:18:40	09:18:40:423	2	4	TNT_NoThink_CSp	Intrusion	0	1500	3000	0	80	1	870	1	How <b>often</b> did you <b>think</b> about the <b>scene</b>?   <center><br><b>NEVER (1)    BRIEFLY (2)   OFTEN (3) </b>	-16	0	0	0	0	0	0
4	2023-03-24	08:52:59	09:18:42	09:18:42:040	3	1	TNT_NoThink_CSm	fixation	0	5	500	0	0	1	495	1	+	-8	0	0	0	0	0	0
4	2023-03-24	08:52:59	09:18:43	09:18:43:053	3	2	TNT_NoThink_CSm	NoThink	0	5	0	0	0	0	1000	1	DON'T THINK	-16	0	0	0	0	0	0
4	2023-03-24	08:52:59	09:18:48	09:18:48:070	3	3	TNT_NoThink_CSm	TNT_NoThink_CSm	0	5	0	0	0	0	5000	1	Cue32.jpg	-16	0	0	0	0	0	0
4	2023-03-24	08:52:59	09:18:49	09:18:49:575	3	4	TNT_NoThink_CSm	Intrusion	0	500	3000	0	80	1	488	1	How <b>often</b> did you <b>think</b> about the <b>scene</b>?   <center><br><b>NEVER (1)    BRIEFLY (2)   OFTEN (3) </b>	-16	0	0	0	0	0	0
4	2023-03-24	08:52:59	09:18:52	09:18:52:073	4	1	TNT_Think_CSp	fixation	0	5	1000	0	0	1	995	1	+	-8	0	0	0	0	0	0
4	2023-03-24	08:52:59	09:18:53	09:18:53:087	4	2	TNT_Think_CSp	Think	0	5	0	0	0	0	1000	1	THINK	-16	0	0	0	0	0	0
4	2023-03-24	08:52:59	09:18:58	09:18:58:103	4	3	TNT_Think_CSp	TNT_Think_CSp	0	5	0	0	0	0	5000	6	Cue5.jpg	-16	0	0	0	0	0	0
4	2023-03-24	08:52:59	09:19:00	09:19:00:551	4	4	TNT_Think_CSp	Intrusion	0	1000	3000	0	81	1	1430	1	How <b>often</b> did you <b>think</b> about the <b>scene</b>?   <center><br><b>NEVER (1)    BRIEFLY (2)   OFTEN (3) </b>	-16	0	0	0	0	0	0
4	2023-03-24	08:52:59	09:19:02	09:19:02:108	5	1	TNT_Think_CSp	fixation	0	5	1000	0	0	1	995	1	+	-9	0	0	0	0	0	0
4	2023-03-24	08:52:59	09:19:03	09:19:03:121	5	2	TNT_Think_CSp	Think	0	5	0	0	0	0	1000	1	THINK	-16	0	0	0	0	0	0
4	2023-03-24	08:52:59	09:19:08	09:19:08:138	5	3	TNT_Think_CSp	TNT_Think_CSp	0	5	0	0	0	0	5000	1	Cue2.jpg	-16	0	0	0	0	0	0
4	2023-03-24	08:52:59	09:19:10	09:19:10:645	5	4	TNT_Think_CSp	Intrusion	0	1500	3000	0	0	0	1500	1	How <b>often</b> did you <b>think</b> about the <b>scene</b>?   <center><br><b>NEVER (1)    BRIEFLY (2)   OFTEN (3) </b>	-16	0	0	0	0	0	0
4	2023-03-24	08:52:59	09:19:13	09:19:13:642	6	1	TNT_Object_CSp	fixation	0	5	1500	0	0	1	1495	1	+	-16	0	0	0	0	0	0
4	2023-03-24	08:52:59	09:19:14	09:19:14:655	6	2	TNT_Object_CSp	Passive	0	5	0	0	0	0	1000	1	VIEW	-16	0	0	0	0	0	0
4	2023-03-24	08:52:59	09:19:19	09:19:19:672	6	3	TNT_Object_CSp	TNT_Object_CSp	0	1000	0	0	0	0	5000	1	Object4.jpg	-16	0	0	0	0	0	0
4	2023-03-24	08:52:59	09:19:20	09:19:20:171	7	1	TNT_Object_CSm	fixation	0	5	500	0	0	1	495	1	+	-8	0	0	0	0	0	0
4	2023-03-24	08:52:59	09:19:21	09:19:21:188	7	2	TNT_Object_CSm	Passive	0	5	0	0	0	0	1000	1	VIEW	-16	0	0	0	0	0	0
4	2023-03-24	08:52:59	09:19:26	09:19:26:205	7	3	TNT_Object_CSm	TNT_Object_CSm	0	1500	0	0	0	0	5000	3	Object8.jpg	-16	0	0	0	0	0	0
4	2023-03-24	08:52:59	09:19:29	09:19:29:205	8	1	TNT_NoThink_CSm	fixation	0	5	1500	0	0	1	1495	1	+	-9	0	0	0	0	0	0
4	2023-03-24	08:52:59	09:19:30	09:19:30:223	8	2	TNT_NoThink_CSm	NoThink	0	5	0	0	0	0	1000	1	DON'T THINK	-16	0	0	0	0	0	0
4	2023-03-24	08:52:59	09:19:35	09:19:35:240	8	3	TNT_NoThink_CSm	TNT_NoThink_CSm	0	5	0	0	0	0	5000	6	Cue35.jpg	-16	0	0	0	0	0	0
4	2023-03-24	08:52:59	09:19:36	09:19:36:743	8	4	TNT_NoThink_CSm	Intrusion	0	1000	3000	0	80	1	486	1	How <b>often</b> did you <b>think</b> about the <b>scene</b>?   <center><br><b>NEVER (1)    BRIEFLY (2)   OFTEN (3) </b>	-16	0	0	0	0	0	0
4	2023-03-24	08:52:59	09:19:39	09:19:39:244	9	1	TNT_NoThink_CSp	fixation	0	5	1000	0	0	1	995	1	+	-16	0	0	0	0	0	0
4	2023-03-24	08:52:59	09:19:40	09:19:40:257	9	2	TNT_NoThink_CSp	NoThink	0	5	0	0	0	0	1000	1	DON'T THINK	-16	0	0	0	0	0	0
4	2023-03-24	08:52:59	09:19:46	09:19:46:273	9	3	TNT_NoThink_CSp	TNT_NoThink_CSp	0	5	0	0	0	0	5000	2	Cue20.jpg	-16	0	0	0	0	0	0
4	2023-03-24	08:52:59	09:19:46	09:19:46:694	9	4	TNT_NoThink_CSp	Intrusion	0	500	3000	0	79	1	404	1	How <b>often</b> did you <b>think</b> about the <b>scene</b>?   <center><br><b>NEVER (1)    BRIEFLY (2)   OFTEN (3) </b>	-16	0	0	0	0	0	0
4	2023-03-24	08:52:59	09:19:49	09:19:49:777	10	1	TNT_NoThink_CSp	fixation	0	5	500	0	0	1	495	1	+	-9	0	0	0	0	0	0
4	2023-03-24	08:52:59	09:19:50	09:19:50:791	10	2	TNT_NoThink_CSp	NoThink	0	5	0	0	0	0	1000	1	DON'T THINK	-16	0	0	0	0	0	0
4	2023-03-24	08:52:59	09:19:55	09:19:55:807	10	3	TNT_NoThink_CSp	TNT_NoThink_CSp	0	5	0	0	0	0	5000	6	Cue34.jpg	-16	0	0	0	0	0	0
4	2023-03-24	08:52:59	09:19:56	09:19:56:279	10	4	TNT_NoThink_CSp	Intrusion	0	1500	3000	0	79	1	455	1	How <b>often</b> did you <b>think</b> about the <b>scene</b>?   <center><br><b>NEVER (1)    BRIEFLY (2)   OFTEN (3) </b>	-16	0	0	0	0	0	0
4	2023-03-24	08:52:59	09:20:00	09:20:00:311	11	1	TNT_Object_CSp	fixation	0	5	1500	0	0	1	1495	1	+	-9	0	0	0	0	0	0
4	2023-03-24	08:52:59	09:20:01	09:20:01:324	11	2	TNT_Object_CSp	Passive	0	5	0	0	0	0	1000	1	VIEW	-16	0	0	0	0	0	0
4	2023-03-24	08:52:59	09:20:06	09:20:06:341	11	3	TNT_Object_CSp	TNT_Object_CSp	0	500	0	0	0	0	5000	3	Object3.jpg	-16	0	0	0	0	0	0
4	2023-03-24	08:52:59	09:20:07	09:20:07:839	12	1	TNT_Think_CSp	fixation	0	5	1000	0	0	1	995	1	+	-8	0	0	0	0	0	0
4	2023-03-24	08:52:59	09:20:08	09:20:08:858	12	2	TNT_Think_CSp	Think	0	5	0	0	0	0	1000	1	THINK	-16	0	0	0	0	0	0
4	2023-03-24	08:52:59	09:20:13	09:20:13:875	12	3	TNT_Think_CSp	TNT_Think_CSp	0	5	0	0	0	0	5000	4	Cue28.jpg	-16	0	0	0	0	0	0
4	2023-03-24	08:52:59	09:20:15	09:20:15:687	12	4	TNT_Think_CSp	Intrusion	0	500	3000	0	81	1	1795	1	How <b>often</b> did you <b>think</b> about the <b>scene</b>?   <center><br><b>NEVER (1)    BRIEFLY (2)   OFTEN (3) </b>	-16	0	0	0	0	0	0
4	2023-03-24	08:52:59	09:20:17	09:20:17:378	13	1	TNT_Think_CSp	fixation	0	5	500	0	0	1	495	1	+	-8	0	0	0	0	0	0
4	2023-03-24	08:52:59	09:20:18	09:20:18:392	13	2	TNT_Think_CSp	Think	0	5	0	0	0	0	1000	1	THINK	-16	0	0	0	0	0	0
4	2023-03-24	08:52:59	09:20:23	09:20:23:409	13	3	TNT_Think_CSp	TNT_Think_CSp	0	5	0	0	0	0	5000	5	Cue18.jpg	-16	0	0	0	0	0	0
4	2023-03-24	08:52:59	09:20:24	09:20:24:471	13	4	TNT_Think_CSp	Intrusion	0	1000	3000	0	81	1	1045	1	How <b>often</b> did you <b>think</b> about the <b>scene</b>?   <center><br><b>NEVER (1)    BRIEFLY (2)   OFTEN (3) </b>	-16	0	0	0	0	0	0
4	2023-03-24	08:52:59	09:20:26	09:20:26:913	14	1	TNT_Object_CSp	fixation	0	5	500	0	0	1	495	1	+	-8	0	0	0	0	0	0
4	2023-03-24	08:52:59	09:20:27	09:20:27:926	14	2	TNT_Object_CSp	Passive	0	5	0	0	0	0	1000	1	VIEW	-16	0	0	0	0	0	0
4	2023-03-24	08:52:59	09:20:32	09:20:32:943	14	3	TNT_Object_CSp	TNT_Object_CSp	0	1500	0	0	0	0	5000	4	Object1.jpg	-16	0	0	0	0	0	0
4	2023-03-24	08:52:59	09:20:35	09:20:35:942	15	1	TNT_Think_CSm	fixation	0	5	1500	0	0	1	1495	1	+	-9	0	0	0	0	0	0
4	2023-03-24	08:52:59	09:20:36	09:20:36:960	15	2	TNT_Think_CSm	Think	0	5	0	0	0	0	1000	1	THINK	-16	0	0	0	0	0	0
4	2023-03-24	08:52:59	09:20:41	09:20:41:977	15	3	TNT_Think_CSm	TNT_Think_CSm	0	5	0	0	0	0	5000	6	Cue19.jpg	-16	0	0	0	0	0	0
4	2023-03-24	08:52:59	09:20:43	09:20:43:287	15	4	TNT_Think_CSm	Intrusion	0	500	3000	0	81	1	1293	1	How <b>often</b> did you <b>think</b> about the <b>scene</b>?   <center><br><b>NEVER (1)    BRIEFLY (2)   OFTEN (3) </b>	-16	0	0	0	0	0	0
4	2023-03-24	08:52:59	09:20:45	09:20:45:981	16	1	TNT_NoThink_CSm	fixation	0	5	1000	0	0	1	995	1	+	-8	0	0	0	0	0	0
4	2023-03-24	08:52:59	09:20:46	09:20:46:994	16	2	TNT_NoThink_CSm	NoThink	0	5	0	0	0	0	1000	1	DON'T THINK	-16	0	0	0	0	0	0
4	2023-03-24	08:52:59	09:20:51	09:20:51:011	16	3	TNT_NoThink_CSm	TNT_NoThink_CSm	0	5	0	0	0	0	5000	2	Cue36.jpg	-16	0	0	0	0	0	0
4	2023-03-24	08:52:59	09:20:52	09:20:52:423	16	4	TNT_NoThink_CSm	Intrusion	0	1000	3000	0	80	1	395	1	How <b>often</b> did you <b>think</b> about the <b>scene</b>?   <center><br><b>NEVER (1)    BRIEFLY (2)   OFTEN (3) </b>	-16	0	0	0	0	0	0
4	2023-03-24	08:52:59	09:20:56	09:20:56:514	17	1	TNT_NoThink_CSm	fixation	0	5	1500	0	0	1	1495	1	+	-8	0	0	0	0	0	0
4	2023-03-24	08:52:59	09:20:57	09:20:57:528	17	2	TNT_NoThink_CSm	NoThink	0	5	0	0	0	0	1000	1	DON'T THINK	-16	0	0	0	0	0	0
4	2023-03-24	08:52:59	09:21:02	09:21:02:545	17	3	TNT_NoThink_CSm	TNT_NoThink_CSm	0	5	0	0	0	0	5000	5	Cue16.jpg	-16	0	0	0	0	0	0
4	2023-03-24	08:52:59	09:21:03	09:21:03:07	17	4	TNT_NoThink_CSm	Intrusion	0	1500	3000	0	80	1	1445	1	How <b>often</b> did you <b>think</b> about the <b>scene</b>?   <center><br><b>NEVER (1)    BRIEFLY (2)   OFTEN (3) </b>	-16	0	0	0	0	0	0
4	2023-03-24	08:52:59	09:21:05	09:21:05:049	18	1	TNT_Object_CSm	fixation	0	5	500	0	0	1	495	1	+	-16	0	0	0	0	0	0
4	2023-03-24	08:52:59	09:21:06	09:21:06:062	18	2	TNT_Object_CSm	Passive	0	5	0	0	0	0	1000	1	VIEW	-16	0	0	0	0	0	0
4	2023-03-24	08:52:59	09:21:11	09:21:11:079	18	3	TNT_Object_CSm	TNT_Object_CSm	0	1000	0	0	0	0	5000	1	Object6.jpg	-16	0	0	0	0	0	0
4	2023-03-24	08:52:59	09:21:13	09:21:13:078	19	1	TNT_NoThink_CSp	fixation	0	5	1000	0	0	1	995	1	+	-8	0	0	0	0	0	0
4	2023-03-24	08:52:59	09:21:14	09:21:14:096	19	2	TNT_NoThink_CSp	NoThink	0	5	0	0	0	0	1000	1	DON'T THINK	-16	0	0	0	0	0	0
4	2023-03-24	08:52:59	09:21:19	09:21:19:112	19	3	TNT_NoThink_CSp	TNT_NoThink_CSp	0	5	0	0	0	0	5000	1	Cue22.jpg	-16	0	0	0	0	0	0
4	2023-03-24	08:52:59	09:21:21	09:21:21:303	19	4	TNT_NoThink_CSp	Intrusion	0	1000	3000	0	80	1	1173	1	How <b>often</b> did you <b>think</b> about the <b>scene</b>?   <center><br><b>NEVER (1)    BRIEFLY (2)   OFTEN (3) </b>	-16	0	0	0	0	0	0
4	2023-03-24	08:52:59	09:21:23	09:21:23:616	20	1	TNT_Think_CSp	fixation	0	5	500	0	0	1	495	1	+	-9	0	0	0	0	0	0
4	2023-03-24	08:52:59	09:21:24	09:21:24:629	20	2	TNT_Think_CSp	Think	0	5	0	0	0	0	1000	1	THINK	-16	0	0	0	0	0	0
4	2023-03-24	08:52:59	09:21:29	09:21:29:646	20	3	TNT_Think_CSp	TNT_Think_CSp	0	5	0	0	0	0	5000	3	Cue33.jpg	-16	0	0	0	0	0	0
4	2023-03-24	08:52:59	09:21:30	09:21:30:887	20	4	TNT_Think_CSp	Intrusion	0	1500	3000	0	81	1	1223	1	How <b>often</b> did you <b>think</b> about the <b>scene</b>?   <center><br><b>NEVER (1)    BRIEFLY (2)   OFTEN (3) </b>	-16	0	0	0	0	0	0
4	2023-03-24	08:52:59	09:21:33	09:21:33:150	21	1	TNT_Object_CSm	fixation	0	5	1500	0	0	1	1495	1	+	0	0	0	0	0	0	0
4	2023-03-24	08:52:59	09:21:34	09:21:34:163	21	2	TNT_Object_CSm	Passive	0	5	0	0	0	0	1000	1	VIEW	-16	0	0	0	0	0	0
4	2023-03-24	08:52:59	09:21:39	09:21:39:180	21	3	TNT_Object_CSm	TNT_Object_CSm	0	500	0	0	0	0	5000	2	Object2.jpg	-16	0	0	0	0	0	0
4	2023-03-24	08:52:59	09:21:41	09:21:41:679	22	1	TNT_NoThink_CSm	fixation	0	5	1000	0	0	1	995	1	+	-5	0	0	0	0	0	0
4	2023-03-24	08:52:59	09:21:42	09:21:42:697	22	2	TNT_NoThink_CSm	NoThink	0	5	0	0	0	0	1000	1	DON'T THINK	-16	0	0	0	0	0	0
4	2023-03-24	08:52:59	09:21:47	09:21:47:714	22	3	TNT_NoThink_CSm	TNT_NoThink_CSm	0	5	0	0	0	0	5000	4	Cue27.jpg	-16	0	0	0	0	0	0
4	2023-03-24	08:52:59	09:21:49	09:21:49:847	22	4	TNT_NoThink_CSm	Intrusion	0	500	3000	0	79	1	2116	1	How <b>often</b> did you <b>think</b> about the <b>scene</b>?   <center><br><b>NEVER (1)    BRIEFLY (2)   OFTEN (3) </b>	-16	0	0	0	0	0	0
4	2023-03-24	08:52:59	09:21:51	09:21:51:718	23	1	TNT_Object_CSp	fixation	0	5	1000	0	0	1	995	1	+	-9	0	0	0	0	0	0
4	2023-03-24	08:52:59	09:21:52	09:21:52:731	23	2	TNT_Object_CSp	Passive	0	5	0	0	0	0	1000	1	VIEW	-16	0	0	0	0	0	0
4	2023-03-24	08:52:59	09:21:57	09:21:57:748	23	3	TNT_Object_CSp	TNT_Object_CSp	0	1500	0	0	0	0	5000	2	Object7.jpg	-16	0	0	0	0	0	0
4	2023-03-24	08:52:59	09:21:59	09:21:59:747	24	1	TNT_NoThink_CSp	fixation	0	5	500	0	0	1	495	1	+	-8	0	0	0	0	0	0
4	2023-03-24	08:52:59	09:22:00	09:22:00:765	24	2	TNT_NoThink_CSp	NoThink	0	5	0	0	0	0	1000	1	DON'T THINK	-16	0	0	0	0	0	0
4	2023-03-24	08:52:59	09:22:05	09:22:05:782	24	3	TNT_NoThink_CSp	TNT_NoThink_CSp	0	5	0	0	0	0	5000	3	Cue15.jpg	-16	0	0	0	0	0	0
4	2023-03-24	08:52:59	09:22:05	09:22:05:231	24	4	TNT_NoThink_CSp	Intrusion	0	500	3000	0	79	1	432	1	How <b>often</b> did you <b>think</b> about the <b>scene</b>?   <center><br><b>NEVER (1)    BRIEFLY (2)   OFTEN (3) </b>	-16	0	0	0	0	0	0
4	2023-03-24	08:52:59	09:22:09	09:22:09:285	25	1	TNT_Think_CSm	fixation	0	5	1500	0	0	1	1495	1	+	-16	0	0	0	0	0	0
4	2023-03-24	08:52:59	09:22:11	09:22:11:299	25	2	TNT_Think_CSm	Think	0	5	0	0	0	0	1000	1	THINK	-16	0	0	0	0	0	0
4	2023-03-24	08:52:59	09:22:16	09:22:16:316	25	3	TNT_Think_CSm	TNT_Think_CSm	0	5	0	0	0	0	5000	2	Cue12.jpg	-16	0	0	0	0	0	0
4	2023-03-24	08:52:59	09:22:17	09:22:17:543	25	4	TNT_Think_CSm	Intrusion	0	1000	3000	0	81	1	1210	1	How <b>often</b> did you <b>think</b> about the <b>scene</b>?   <center><br><b>NEVER (1)    BRIEFLY (2)   OFTEN (3) </b>	-16	0	0	0	0	0	0
4	2023-03-24	08:52:59	09:22:19	09:22:19:820	26	1	TNT_NoThink_CSm	fixation	0	5	500	0	0	1	495	1	+	-8	0	0	0	0	0	0
4	2023-03-24	08:52:59	09:22:20	09:22:20:833	26	2	TNT_NoThink_CSm	NoThink	0	5	0	0	0	0	1000	1	DON'T THINK	-16	0	0	0	0	0	0
4	2023-03-24	08:52:59	09:22:25	09:22:25:850	26	3	TNT_NoThink_CSm	TNT_NoThink_CSm	0	5	0	0	0	0	5000	3	Cue13.jpg	-16	0	0	0	0	0	0
4	2023-03-24	08:52:59	09:22:27	09:22:27:356	26	4	TNT_NoThink_CSm	Intrusion	0	1500	3000	0	0	0	1500	1	How <b>often</b> did you <b>think</b> about the <b>scene</b>?   <center><br><b>NEVER (1)    BRIEFLY (2)   OFTEN (3) </b>	-16	0	0	0	0	0	0
4	2023-03-24	08:52:59	09:22:29	09:22:29:854	27	1	TNT_Think_CSm	fixation	0	5	1000	0	0	1	995	1	+	-8	0	0	0	0	0	0
4	2023-03-24	08:52:59	09:22:30	09:22:30:867	27	2	TNT_Think_CSm	Think	0	5	0	0	0	0	1000	1	THINK	-16	0	0	0	0	0	0
4	2023-03-24	08:52:59	09:22:35	09:22:35:884	27	3	TNT_Think_CSm	TNT_Think_CSm	0	5	0	0	0	0	5000	5	Cue23.jpg	-16	0	0	0	0	0	0
4	2023-03-24	08:52:59	09:22:37	09:22:37:391	27	4	TNT_Think_CSm	Intrusion	0	1500	3000	0	0	0	1500	1	How <b>often</b> did you <b>think</b> about the <b>scene</b>?   <center><br><b>NEVER (1)    BRIEFLY (2)   OFTEN (3) </b>	-16	0	0	0	0	0	0
4	2023-03-24	08:52:59	09:22:40	09:22:40:388	28	1	TNT_Think_CSm	fixation	0	5	1500	0	0	1	1495	1	+	-8	0	0	0	0	0	0
4	2023-03-24	08:52:59	09:22:41	09:22:41:401	28	2	TNT_Think_CSm	Think	0	5	0	0	0	0	1000	1	THINK	-16	0	0	0	0	0	0
4	2023-03-24	08:52:59	09:22:46	09:22:46:418	28	3	TNT_Think_CSm	TNT_Think_CSm	0	5	0	0	0	0	5000	4	Cue10.jpg	-16	0	0	0	0	0	0
4	2023-03-24	08:52:59	09:22:46	09:22:46:271	28	4	TNT_Think_CSm	Intrusion	0	500	3000	0	81	1	836	1	How <b>often</b> did you <b>think</b> about the <b>scene</b>?   <center><br><b>NEVER (1)    BRIEFLY (2)   OFTEN (3) </b>	-16	0	0	0	0	0	0
4	2023-03-24	08:52:59	09:22:50	09:22:50:922	29	1	TNT_Think_CSp	fixation	0	5	1500	0	0	1	1495	1	+	-5	0	0	0	0	0	0
4	2023-03-24	08:52:59	09:22:51	09:22:51:935	29	2	TNT_Think_CSp	Think	0	5	0	0	0	0	1000	1	THINK	-16	0	0	0	0	0	0
4	2023-03-24	08:52:59	09:22:56	09:22:56:952	29	3	TNT_Think_CSp	TNT_Think_CSp	0	5	0	0	0	0	5000	2	Cue25.jpg	-16	0	0	0	0	0	0
4	2023-03-24	08:52:59	09:22:57	09:22:57:167	29	4	TNT_Think_CSp	Intrusion	0	1000	3000	0	81	1	1198	1	How <b>often</b> did you <b>think</b> about the <b>scene</b>?   <center><br><b>NEVER (1)    BRIEFLY (2)   OFTEN (3) </b>	-16	0	0	0	0	0	0
4	2023-03-24	08:52:59	09:23:00	09:23:00:956	30	1	TNT_NoThink_CSp	fixation	0	5	1000	0	0	1	995	1	+	-16	0	0	0	0	0	0
4	2023-03-24	08:52:59	09:23:01	09:23:01:969	30	2	TNT_NoThink_CSp	NoThink	0	5	0	0	0	0	1000	1	DON'T THINK	-16	0	0	0	0	0	0
4	2023-03-24	08:52:59	09:23:06	09:23:06:985	30	3	TNT_NoThink_CSp	TNT_NoThink_CSp	0	5	0	0	0	0	5000	4	Cue26.jpg	-16	0	0	0	0	0	0
4	2023-03-24	08:52:59	09:23:07	09:23:07:367	30	4	TNT_NoThink_CSp	Intrusion	0	1500	3000	0	79	1	364	1	How <b>often</b> did you <b>think</b> about the <b>scene</b>?   <center><br><b>NEVER (1)    BRIEFLY (2)   OFTEN (3) </b>	-16	0	0	0	0	0	0
4	2023-03-24	08:52:59	09:23:10	09:23:10:489	31	1	TNT_Object_CSm	fixation	0	5	500	0	0	1	495	1	+	-9	0	0	0	0	0	0
4	2023-03-24	08:52:59	09:23:11	09:23:11:503	31	2	TNT_Object_CSm	Passive	0	5	0	0	0	0	1000	1	VIEW	-16	0	0	0	0	0	0
4	2023-03-24	08:52:59	09:23:16	09:23:16:519	31	3	TNT_Object_CSm	TNT_Object_CSm	0	1500	0	0	0	0	5000	4	Object5.jpg	-16	0	0	0	0	0	0
4	2023-03-24	08:52:59	09:23:18	09:23:18:019	32	1	TNT_Think_CSm	fixation	0	5	1000	0	0	1	995	1	+	-9	0	0	0	0	0	0
4	2023-03-24	08:52:59	09:23:19	09:23:19:036	32	2	TNT_Think_CSm	Think	0	5	0	0	0	0	1000	1	THINK	-16	0	0	0	0	0	0
4	2023-03-24	08:52:59	09:23:24	09:23:24:053	32	3	TNT_Think_CSm	TNT_Think_CSm	0	5	0	0	0	0	5000	1	Cue1.jpg	-16	0	0	0	0	0	0
4	2023-03-24	08:52:59	09:23:26	09:23:26:695	32	4	TNT_Think_CSm	Intrusion	0	500	3000	0	81	1	1624	1	How <b>often</b> did you <b>think</b> about the <b>scene</b>?   <center><br><b>NEVER (1)    BRIEFLY (2)   OFTEN (3) </b>	-16	0	0	0	0	0	0
4	2023-03-24	08:52:59	09:23:29	09:23:29:557	33	1	TNT_Think_CSm	fixation	0	5	1500	0	0	1	1495	1	+	-2	0	0	0	0	0	0
4	2023-03-24	08:52:59	09:23:30	09:23:30:570	33	2	TNT_Think_CSm	Think	0	5	0	0	0	0	1000	1	THINK	-16	0	0	0	0	0	0
4	2023-03-24	08:52:59	09:23:35	09:23:35:587	33	3	TNT_Think_CSm	TNT_Think_CSm	0	5	0	0	0	0	5000	3	Cue30.jpg	-16	0	0	0	0	0	0
4	2023-03-24	08:52:59	09:23:36	09:23:36:439	33	4	TNT_Think_CSm	Intrusion	0	1000	3000	0	81	1	834	1	How <b>often</b> did you <b>think</b> about the <b>scene</b>?   <center><br><b>NEVER (1)    BRIEFLY (2)   OFTEN (3) </b>	-16	0	0	0	0	0	0
4	2023-03-24	08:52:59	09:23:38	09:23:38:091	34	1	TNT_Think_CSp	fixation	0	5	500	0	0	1	495	1	+	-8	0	0	0	0	0	0
4	2023-03-24	08:52:59	09:23:39	09:23:39:104	34	2	TNT_Think_CSp	Think	0	5	0	0	0	0	1000	1	THINK	-16	0	0	0	0	0	0
4	2023-03-24	08:52:59	09:23:44	09:23:44:121	34	3	TNT_Think_CSp	TNT_Think_CSp	0	5	0	0	0	0	5000	5	Cue18.jpg	-16	0	0	0	0	0	0
4	2023-03-24	08:52:59	09:23:45	09:23:45:863	34	4	TNT_Think_CSp	Intrusion	0	1000	3000	0	81	1	724	1	How <b>often</b> did you <b>think</b> about the <b>scene</b>?   <center><br><b>NEVER (1)    BRIEFLY (2)   OFTEN (3) </b>	-16	0	0	0	0	0	0
4	2023-03-24	08:52:59	09:23:49	09:23:49:625	35	1	TNT_Think_CSp	fixation	0	5	1500	0	0	1	1495	1	+	-8	0	0	0	0	0	0
4	2023-03-24	08:52:59	09:23:50	09:23:50:638	35	2	TNT_Think_CSp	Think	0	5	0	0	0	0	1000	1	THINK	-16	0	0	0	0	0	0
4	2023-03-24	08:52:59	09:23:55	09:23:55:655	35	3	TNT_Think_CSp	TNT_Think_CSp	0	5	0	0	0	0	5000	2	Cue25.jpg	-16	0	0	0	0	0	0
4	2023-03-24	08:52:59	09:23:56	09:23:56:162	35	4	TNT_Think_CSp	Intrusion	0	1500	3000	0	0	0	1500	1	How <b>often</b> did you <b>think</b> about the <b>scene</b>?   <center><br><b>NEVER (1)    BRIEFLY (2)   OFTEN (3) </b>	-16	0	0	0	0	0	0
4	2023-03-24	08:52:59	09:23:59	09:23:59:659	36	1	TNT_NoThink_CSm	fixation	0	5	1000	0	0	1	995	1	+	1	0	0	0	0	0	0
4	2023-03-24	08:52:59	09:24:00	09:24:00:673	36	2	TNT_NoThink_CSm	NoThink	0	5	0	0	0	0	1000	1	DON'T THINK	-16	0	0	0	0	0	0
4	2023-03-24	08:52:59	09:24:05	09:24:05:689	36	3	TNT_NoThink_CSm	TNT_NoThink_CSm	0	5	0	0	0	0	5000	1	Cue32.jpg	-16	0	0	0	0	0	0
4	2023-03-24	08:52:59	09:24:05	09:24:05:087	36	4	TNT_NoThink_CSm	Intrusion	0	500	3000	0	79	1	380	1	How <b>often</b> did you <b>think</b> about the <b>scene</b>?   <center><br><b>NEVER (1)    BRIEFLY (2)   OFTEN (3) </b>	-16	0	0	0	0	0	0
4	2023-03-24	08:52:59	09:24:08	09:24:08:193	37	1	TNT_Object_CSp	fixation	0	5	500	0	0	1	495	1	+	-8	0	0	0	0	0	0
4	2023-03-24	08:52:59	09:24:09	09:24:09:206	37	2	TNT_Object_CSp	Passive	0	5	0	0	0	0	1000	1	VIEW	-16	0	0	0	0	0	0
4	2023-03-24	08:52:59	09:24:14	09:24:14:223	37	3	TNT_Object_CSp	TNT_Object_CSp	0	500	0	0	0	0	5000	4	Object1.jpg	-16	0	0	0	0	0	0
4	2023-03-24	08:52:59	09:24:15	09:24:15:222	38	1	TNT_NoThink_CSm	fixation	0	5	500	0	0	1	495	1	+	-9	0	0	0	0	0	0
4	2023-03-24	08:52:59	09:24:16	09:24:16:240	38	2	TNT_NoThink_CSm	NoThink	0	5	0	0	0	0	1000	1	DON'T THINK	-16	0	0	0	0	0	0
4	2023-03-24	08:52:59	09:24:21	09:24:21:257	38	3	TNT_NoThink_CSm	TNT_NoThink_CSm	0	5	0	0	0	0	5000	5	Cue16.jpg	-16	0	0	0	0	0	0
4	2023-03-24	08:52:59	09:24:22	09:24:22:663	38	4	TNT_NoThink_CSm	Intrusion	0	1500	3000	0	79	1	389	1	How <b>often</b> did you <b>think</b> about the <b>scene</b>?   <center><br><b>NEVER (1)    BRIEFLY (2)   OFTEN (3) </b>	-16	0	0	0	0	0	0
4	2023-03-24	08:52:59	09:24:26	09:24:26:760	39	1	TNT_NoThink_CSm	fixation	0	5	1500	0	0	1	1495	1	+	-8	0	0	0	0	0	0
4	2023-03-24	08:52:59	09:24:27	09:24:27:774	39	2	TNT_NoThink_CSm	NoThink	0	5	0	0	0	0	1000	1	DON'T THINK	-16	0	0	0	0	0	0
4	2023-03-24	08:52:59	09:24:32	09:24:32:791	39	3	TNT_NoThink_CSm	TNT_NoThink_CSm	0	5	0	0	0	0	5000	4	Cue27.jpg	-16	0	0	0	0	0	0
4	2023-03-24	08:52:59	09:24:32	09:24:32:239	39	4	TNT_NoThink_CSm	Intrusion	0	1000	3000	0	79	1	431	1	How <b>often</b> did you <b>think</b> about the <b>scene</b>?   <center><br><b>NEVER (1)    BRIEFLY (2)   OFTEN (3) </b>	-16	0	0	0	0	0	0
4	2023-03-24	08:52:59	09:24:36	09:24:36:794	40	1	TNT_NoThink_CSp	fixation	0	5	1000	0	0	1	995	1	+	-16	0	0	0	0	0	0
4	2023-03-24	08:52:59	09:24:37	09:24:37:808	40	2	TNT_NoThink_CSp	NoThink	0	5	0	0	0	0	1000	1	DON'T THINK	-16	0	0	0	0	0	0
4	2023-03-24	08:52:59	09:24:42	09:24:42:825	40	3	TNT_NoThink_CSp	TNT_NoThink_CSp	0	5	0	0	0	0	5000	3	Cue15.jpg	-16	0	0	0	0	0	0
4	2023-03-24	08:52:59	09:24:42	09:24:42:191	40	4	TNT_NoThink_CSp	Intrusion	0	500	3000	0	79	1	349	1	How <b>often</b> did you <b>think</b> about the <b>scene</b>?   <center><br><b>NEVER (1)    BRIEFLY (2)   OFTEN (3) </b>	-16	0	0	0	0	0	0
4	2023-03-24	08:52:59	09:24:46	09:24:46:329	41	1	TNT_Think_CSm	fixation	0	5	500	0	0	1	495	1	+	-8	0	0	0	0	0	0
4	2023-03-24	08:52:59	09:24:47	09:24:47:342	41	2	TNT_Think_CSm	Think	0	5	0	0	0	0	1000	1	THINK	-16	0	0	0	0	0	0
4	2023-03-24	08:52:59	09:24:52	09:24:52:359	41	3	TNT_Think_CSm	TNT_Think_CSm	0	5	0	0	0	0	5000	6	Cue19.jpg	-16	0	0	0	0	0	0
4	2023-03-24	08:52:59	09:24:52	09:24:52:647	41	4	TNT_Think_CSm	Intrusion	0	1000	3000	0	81	1	271	1	How <b>often</b> did you <b>think</b> about the <b>scene</b>?   <center><br><b>NEVER (1)    BRIEFLY (2)   OFTEN (3) </b>	-16	0	0	0	0	0	0
4	2023-03-24	08:52:59	09:24:56	09:24:56:863	42	1	TNT_NoThink_CSp	fixation	0	5	1500	0	0	1	1495	1	+	-16	0	0	0	0	0	0
4	2023-03-24	08:52:59	09:24:57	09:24:57:876	42	2	TNT_NoThink_CSp	NoThink	0	5	0	0	0	0	1000	1	DON'T THINK	-16	0	0	0	0	0	0
4	2023-03-24	08:52:59	09:25:02	09:25:02:893	42	3	TNT_NoThink_CSp	TNT_NoThink_CSp	0	5	0	0	0	0	5000	4	Cue26.jpg	-16	0	0	0	0	0	0
4	2023-03-24	08:52:59	09:25:02	09:25:02:255	42	4	TNT_NoThink_CSp	Intrusion	0	500	3000	0	80	1	345	1	How <b>often</b> did you <b>think</b> about the <b>scene</b>?   <center><br><b>NEVER (1)    BRIEFLY (2)   OFTEN (3) </b>	-16	0	0	0	0	0	0
4	2023-03-24	08:52:59	09:25:06	09:25:06:897	43	1	TNT_Object_CSp	fixation	0	5	1000	0	0	1	995	1	+	-8	0	0	0	0	0	0
4	2023-03-24	08:52:59	09:25:07	09:25:07:910	43	2	TNT_Object_CSp	Passive	0	5	0	0	0	0	1000	1	VIEW	-16	0	0	0	0	0	0
4	2023-03-24	08:52:59	09:25:12	09:25:12:927	43	3	TNT_Object_CSp	TNT_Object_CSp	0	1000	0	0	0	0	5000	1	Object4.jpg	-16	0	0	0	0	0	0
4	2023-03-24	08:52:59	09:25:14	09:25:14:426	44	1	TNT_NoThink_CSp	fixation	0	5	500	0	0	1	495	1	+	-8	0	0	0	0	0	0
4	2023-03-24	08:52:59	09:25:15	09:25:15:444	44	2	TNT_NoThink_CSp	NoThink	0	5	0	0	0	0	1000	1	DON'T THINK	-16	0	0	0	0	0	0
4	2023-03-24	08:52:59	09:25:20	09:25:20:460	44	3	TNT_NoThink_CSp	TNT_NoThink_CSp	0	5	0	0	0	0	5000	5	Cue3.jpg	-16	0	0	0	0	0	0
4	2023-03-24	08:52:59	09:25:20	09:25:20:887	44	4	TNT_NoThink_CSp	Intrusion	0	1500	3000	0	80	1	409	1	How <b>often</b> did you <b>think</b> about the <b>scene</b>?   <center><br><b>NEVER (1)    BRIEFLY (2)   OFTEN (3) </b>	-16	0	0	0	0	0	0
4	2023-03-24	08:52:59	09:25:24	09:25:24:465	45	1	TNT_Think_CSp	fixation	0	5	1000	0	0	1	995	1	+	-16	0	0	0	0	0	0
4	2023-03-24	08:52:59	09:25:25	09:25:25:478	45	2	TNT_Think_CSp	Think	0	5	0	0	0	0	1000	1	THINK	-16	0	0	0	0	0	0
4	2023-03-24	08:52:59	09:25:30	09:25:30:494	45	3	TNT_Think_CSp	TNT_Think_CSp	0	5	0	0	0	0	5000	6	Cue5.jpg	-16	0	0	0	0	0	0
4	2023-03-24	08:52:59	09:25:31	09:25:31:02	45	4	TNT_Think_CSp	Intrusion	0	1500	3000	0	0	0	1500	1	How <b>often</b> did you <b>think</b> about the <b>scene</b>?   <center><br><b>NEVER (1)    BRIEFLY (2)   OFTEN (3) </b>	-16	0	0	0	0	0	0
4	2023-03-24	08:52:59	09:25:34	09:25:34:999	46	1	TNT_Object_CSm	fixation	0	5	1500	0	0	1	1495	1	+	-16	0	0	0	0	0	0
4	2023-03-24	08:52:59	09:25:35	09:25:35:011	46	2	TNT_Object_CSm	Passive	0	5	0	0	0	0	1000	1	VIEW	-16	0	0	0	0	0	0
4	2023-03-24	08:52:59	09:25:40	09:25:40:028	46	3	TNT_Object_CSm	TNT_Object_CSm	0	500	0	0	0	0	5000	1	Object6.jpg	-16	0	0	0	0	0	0
4	2023-03-24	08:52:59	09:25:42	09:25:42:528	47	1	TNT_NoThink_CSm	fixation	0	5	1000	0	0	1	995	1	+	-9	0	0	0	0	0	0
4	2023-03-24	08:52:59	09:25:43	09:25:43:546	47	2	TNT_NoThink_CSm	NoThink	0	5	0	0	0	0	1000	1	DON'T THINK	-16	0	0	0	0	0	0
4	2023-03-24	08:52:59	09:25:48	09:25:48:562	47	3	TNT_NoThink_CSm	TNT_NoThink_CSm	0	5	0	0	0	0	5000	3	Cue13.jpg	-16	0	0	0	0	0	0
4	2023-03-24	08:52:59	09:25:48	09:25:48:271	47	4	TNT_NoThink_CSm	Intrusion	0	1000	3000	0	79	1	691	1	How <b>often</b> did you <b>think</b> about the <b>scene</b>?   <center><br><b>NEVER (1)    BRIEFLY (2)   OFTEN (3) </b>	-16	0	0	0	0	0	0
4	2023-03-24	08:52:59	09:25:51	09:25:51:066	48	1	TNT_NoThink_CSp	fixation	0	5	500	0	0	1	495	1	+	-9	0	0	0	0	0	0
4	2023-03-24	08:52:59	09:25:52	09:25:52:079	48	2	TNT_NoThink_CSp	NoThink	0	5	0	0	0	0	1000	1	DON'T THINK	-16	0	0	0	0	0	0
4	2023-03-24	08:52:59	09:25:57	09:25:57:096	48	3	TNT_NoThink_CSp	TNT_NoThink_CSp	0	5	0	0	0	0	5000	6	Cue34.jpg	-16	0	0	0	0	0	0
4	2023-03-24	08:52:59	09:25:58	09:25:58:695	48	4	TNT_NoThink_CSp	Intrusion	0	500	3000	0	79	1	581	1	How <b>often</b> did you <b>think</b> about the <b>scene</b>?   <center><br><b>NEVER (1)    BRIEFLY (2)   OFTEN (3) </b>	-16	0	0	0	0	0	0
4	2023-03-24	08:52:59	09:26:02	09:26:02:600	49	1	TNT_Object_CSm	fixation	0	5	1500	0	0	1	1495	1	+	-8	0	0	0	0	0	0
4	2023-03-24	08:52:59	09:26:03	09:26:03:613	49	2	TNT_Object_CSm	Passive	0	5	0	0	0	0	1000	1	VIEW	-16	0	0	0	0	0	0
4	2023-03-24	08:52:59	09:26:08	09:26:08:630	49	3	TNT_Object_CSm	TNT_Object_CSm	0	1000	0	0	0	0	5000	3	Object8.jpg	-16	0	0	0	0	0	0
4	2023-03-24	08:52:59	09:26:10	09:26:10:630	50	1	TNT_Think_CSm	fixation	0	5	1000	0	0	1	995	1	+	-9	0	0	0	0	0	0
4	2023-03-24	08:52:59	09:26:11	09:26:11:647	50	2	TNT_Think_CSm	Think	0	5	0	0	0	0	1000	1	THINK	-16	0	0	0	0	0	0
4	2023-03-24	08:52:59	09:26:16	09:26:16:664	50	3	TNT_Think_CSm	TNT_Think_CSm	0	5	0	0	0	0	5000	3	Cue30.jpg	-16	0	0	0	0	0	0
4	2023-03-24	08:52:59	09:26:17	09:26:17:303	50	4	TNT_Think_CSm	Intrusion	0	1000	3000	0	81	1	622	1	How <b>often</b> did you <b>think</b> about the <b>scene</b>?   <center><br><b>NEVER (1)    BRIEFLY (2)   OFTEN (3) </b>	-16	0	0	0	0	0	0
4	2023-03-24	08:52:59	09:26:19	09:26:19:168	51	1	TNT_NoThink_CSm	fixation	0	5	500	0	0	1	495	1	+	-9	0	0	0	0	0	0
4	2023-03-24	08:52:59	09:26:20	09:26:20:181	51	2	TNT_NoThink_CSm	NoThink	0	5	0	0	0	0	1000	1	DON'T THINK	-16	0	0	0	0	0	0
4	2023-03-24	08:52:59	09:26:25	09:26:25:198	51	3	TNT_NoThink_CSm	TNT_NoThink_CSm	0	5	0	0	0	0	5000	2	Cue36.jpg	-16	0	0	0	0	0	0
4	2023-03-24	08:52:59	09:26:26	09:26:26:743	51	4	TNT_NoThink_CSm	Intrusion	0	1500	3000	0	79	1	528	1	How <b>often</b> did you <b>think</b> about the <b>scene</b>?   <center><br><b>NEVER (1)    BRIEFLY (2)   OFTEN (3) </b>	-16	0	0	0	0	0	0
4	2023-03-24	08:52:59	09:26:30	09:26:30:701	52	1	TNT_Object_CSm	fixation	0	5	1500	0	0	1	1495	1	+	-8	0	0	0	0	0	0
4	2023-03-24	08:52:59	09:26:31	09:26:31:715	52	2	TNT_Object_CSm	Passive	0	5	0	0	0	0	1000	1	VIEW	-16	0	0	0	0	0	0
4	2023-03-24	08:52:59	09:26:36	09:26:36:732	52	3	TNT_Object_CSm	TNT_Object_CSm	0	500	0	0	0	0	5000	4	Object5.jpg	-16	0	0	0	0	0	0
4	2023-03-24	08:52:59	09:26:37	09:26:37:731	53	1	TNT_NoThink_CSp	fixation	0	5	500	0	0	1	495	1	+	-4	0	0	0	0	0	0
4	2023-03-24	08:52:59	09:26:38	09:26:38:749	53	2	TNT_NoThink_CSp	NoThink	0	5	0	0	0	0	1000	1	DON'T THINK	-16	0	0	0	0	0	0
4	2023-03-24	08:52:59	09:26:43	09:26:43:766	53	3	TNT_NoThink_CSp	TNT_NoThink_CSp	0	5	0	0	0	0	5000	2	Cue20.jpg	-16	0	0	0	0	0	0
4	2023-03-24	08:52:59	09:26:43	09:26:43:135	53	4	TNT_NoThink_CSp	Intrusion	0	500	3000	0	80	1	352	1	How <b>often</b> did you <b>think</b> about the <b>scene</b>?   <center><br><b>NEVER (1)    BRIEFLY (2)   OFTEN (3) </b>	-16	0	0	0	0	0	0
4	2023-03-24	08:52:59	09:26:47	09:26:47:270	54	1	TNT_Think_CSp	fixation	0	5	1500	0	0	1	1495	1	+	-9	0	0	0	0	0	0
4	2023-03-24	08:52:59	09:26:48	09:26:48:283	54	2	TNT_Think_CSp	Think	0	5	0	0	0	0	1000	1	THINK	-16	0	0	0	0	0	0
4	2023-03-24	08:52:59	09:26:54	09:26:54:300	54	3	TNT_Think_CSp	TNT_Think_CSp	0	5	0	0	0	0	5000	3	Cue33.jpg	-16	0	0	0	0	0	0
4	2023-03-24	08:52:59	09:26:54	09:26:54:063	54	4	TNT_Think_CSp	Intrusion	0	500	3000	0	81	1	746	1	How <b>often</b> did you <b>think</b> about the <b>scene</b>?   <center><br><b>NEVER (1)    BRIEFLY (2)   OFTEN (3) </b>	-16	0	0	0	0	0	0
4	2023-03-24	08:52:59	09:26:58	09:26:58:304	55	1	TNT_NoThink_CSp	fixation	0	5	1000	0	0	1	995	1	+	-16	0	0	0	0	0	0
4	2023-03-24	08:52:59	09:26:59	09:26:59:317	55	2	TNT_NoThink_CSp	NoThink	0	5	0	0	0	0	1000	1	DON'T THINK	-16	0	0	0	0	0	0
4	2023-03-24	08:52:59	09:27:04	09:27:04:334	55	3	TNT_NoThink_CSp	TNT_NoThink_CSp	0	5	0	0	0	0	5000	1	Cue22.jpg	-16	0	0	0	0	0	0
4	2023-03-24	08:52:59	09:27:04	09:27:04:647	55	4	TNT_NoThink_CSp	Intrusion	0	1500	3000	0	80	1	296	1	How <b>often</b> did you <b>think</b> about the <b>scene</b>?   <center><br><b>NEVER (1)    BRIEFLY (2)   OFTEN (3) </b>	-16	0	0	0	0	0	0
4	2023-03-24	08:52:59	09:27:08	09:27:08:838	56	1	TNT_Think_CSp	fixation	0	5	1500	0	0	1	1495	1	+	-16	0	0	0	0	0	0
4	2023-03-24	08:52:59	09:27:09	09:27:09:851	56	2	TNT_Think_CSp	Think	0	5	0	0	0	0	1000	1	THINK	-16	0	0	0	0	0	0
4	2023-03-24	08:52:59	09:27:14	09:27:14:868	56	3	TNT_Think_CSp	TNT_Think_CSp	0	5	0	0	0	0	5000	1	Cue2.jpg	-16	0	0	0	0	0	0
4	2023-03-24	08:52:59	09:27:15	09:27:15:719	56	4	TNT_Think_CSp	Intrusion	0	1000	3000	0	81	1	834	1	How <b>often</b> did you <b>think</b> about the <b>scene</b>?   <center><br><b>NEVER (1)    BRIEFLY (2)   OFTEN (3) </b>	-16	0	0	0	0	0	0
4	2023-03-24	08:52:59	09:27:18	09:27:18:872	57	1	TNT_Think_CSm	fixation	0	5	1000	0	0	1	995	1	+	-16	0	0	0	0	0	0
4	2023-03-24	08:52:59	09:27:19	09:27:19:885	57	2	TNT_Think_CSm	Think	0	5	0	0	0	0	1000	1	THINK	-16	0	0	0	0	0	0
4	2023-03-24	08:52:59	09:27:24	09:27:24:901	57	3	TNT_Think_CSm	TNT_Think_CSm	0	5	0	0	0	0	5000	5	Cue23.jpg	-16	0	0	0	0	0	0
4	2023-03-24	08:52:59	09:27:25	09:27:25:623	57	4	TNT_Think_CSm	Intrusion	0	1500	3000	0	81	1	704	1	How <b>often</b> did you <b>think</b> about the <b>scene</b>?   <center><br><b>NEVER (1)    BRIEFLY (2)   OFTEN (3) </b>	-16	0	0	0	0	0	0
4	2023-03-24	08:52:59	09:27:28	09:27:28:405	58	1	TNT_Object_CSp	fixation	0	5	500	0	0	1	495	1	+	-8	0	0	0	0	0	0
4	2023-03-24	08:52:59	09:27:29	09:27:29:419	58	2	TNT_Object_CSp	Passive	0	5	0	0	0	0	1000	1	VIEW	-16	0	0	0	0	0	0
4	2023-03-24	08:52:59	09:27:34	09:27:34:435	58	3	TNT_Object_CSp	TNT_Object_CSp	0	1000	0	0	0	0	5000	2	Object7.jpg	-16	0	0	0	0	0	0
4	2023-03-24	08:52:59	09:27:35	09:27:35:935	59	1	TNT_NoThink_CSm	fixation	0	5	500	0	0	1	495	1	+	-9	0	0	0	0	0	0
4	2023-03-24	08:52:59	09:27:36	09:27:36:952	59	2	TNT_NoThink_CSm	NoThink	0	5	0	0	0	0	1000	1	DON'T THINK	-16	0	0	0	0	0	0
4	2023-03-24	08:52:59	09:27:41	09:27:41:969	59	3	TNT_NoThink_CSm	TNT_NoThink_CSm	0	5	0	0	0	0	5000	6	Cue35.jpg	-16	0	0	0	0	0	0
4	2023-03-24	08:52:59	09:27:42	09:27:42:159	59	4	TNT_NoThink_CSm	Intrusion	0	1000	3000	0	79	1	1173	1	How <b>often</b> did you <b>think</b> about the <b>scene</b>?   <center><br><b>NEVER (1)    BRIEFLY (2)   OFTEN (3) </b>	-16	0	0	0	0	0	0
4	2023-03-24	08:52:59	09:27:46	09:27:46:473	60	1	TNT_Think_CSp	fixation	0	5	1500	0	0	1	1495	1	+	-9	0	0	0	0	0	0
4	2023-03-24	08:52:59	09:27:47	09:27:47:486	60	2	TNT_Think_CSp	Think	0	5	0	0	0	0	1000	1	THINK	-16	0	0	0	0	0	0
4	2023-03-24	08:52:59	09:27:52	09:27:52:503	60	3	TNT_Think_CSp	TNT_Think_CSp	0	5	0	0	0	0	5000	4	Cue28.jpg	-16	0	0	0	0	0	0
4	2023-03-24	08:52:59	09:27:53	09:27:53:415	60	4	TNT_Think_CSp	Intrusion	0	500	3000	0	81	1	894	1	How <b>often</b> did you <b>think</b> about the <b>scene</b>?   <center><br><b>NEVER (1)    BRIEFLY (2)   OFTEN (3) </b>	-16	0	0	0	0	0	0
4	2023-03-24	08:52:59	09:27:56	09:27:56:507	61	1	TNT_Object_CSp	fixation	0	5	1000	0	0	1	995	1	+	-8	0	0	0	0	0	0
4	2023-03-24	08:52:59	09:27:57	09:27:57:520	61	2	TNT_Object_CSp	Passive	0	5	0	0	0	0	1000	1	VIEW	-16	0	0	0	0	0	0
4	2023-03-24	08:52:59	09:28:02	09:28:02:537	61	3	TNT_Object_CSp	TNT_Object_CSp	0	500	0	0	0	0	5000	3	Object3.jpg	-16	0	0	0	0	0	0
4	2023-03-24	08:52:59	09:28:04	09:28:04:536	62	1	TNT_Object_CSm	fixation	0	5	1500	0	0	1	1495	1	+	-9	0	0	0	0	0	0
4	2023-03-24	08:52:59	09:28:05	09:28:05:554	62	2	TNT_Object_CSm	Passive	0	5	0	0	0	0	1000	1	VIEW	-16	0	0	0	0	0	0
4	2023-03-24	08:52:59	09:28:10	09:28:10:571	62	3	TNT_Object_CSm	TNT_Object_CSm	0	1000	0	0	0	0	5000	2	Object2.jpg	-16	0	0	0	0	0	0
4	2023-03-24	08:52:59	09:28:12	09:28:12:569	63	1	TNT_Think_CSm	fixation	0	5	1000	0	0	1	995	1	+	-9	0	0	0	0	0	0
4	2023-03-24	08:52:59	09:28:13	09:28:13:588	63	2	TNT_Think_CSm	Think	0	5	0	0	0	0	1000	1	THINK	-16	0	0	0	0	0	0
4	2023-03-24	08:52:59	09:28:18	09:28:18:605	63	3	TNT_Think_CSm	TNT_Think_CSm	0	5	0	0	0	0	5000	1	Cue1.jpg	-16	0	0	0	0	0	0
4	2023-03-24	08:52:59	09:28:19	09:28:19:607	63	4	TNT_Think_CSm	Intrusion	0	500	3000	0	81	1	985	1	How <b>often</b> did you <b>think</b> about the <b>scene</b>?   <center><br><b>NEVER (1)    BRIEFLY (2)   OFTEN (3) </b>	-16	0	0	0	0	0	0
4	2023-03-24	08:52:59	09:28:21	09:28:21:109	64	1	TNT_Think_CSm	fixation	0	5	500	0	0	1	495	1	+	-16	0	0	0	0	0	0
4	2023-03-24	08:52:59	09:28:22	09:28:22:122	64	2	TNT_Think_CSm	Think	0	5	0	0	0	0	1000	1	THINK	-16	0	0	0	0	0	0
4	2023-03-24	08:52:59	09:28:27	09:28:27:139	64	3	TNT_Think_CSm	TNT_Think_CSm	0	5	0	0	0	0	5000	2	Cue12.jpg	-16	0	0	0	0	0	0
4	2023-03-24	08:52:59	09:28:28	09:28:28:967	64	4	TNT_Think_CSm	Intrusion	0	1000	3000	0	81	1	811	1	How <b>often</b> did you <b>think</b> about the <b>scene</b>?   <center><br><b>NEVER (1)    BRIEFLY (2)   OFTEN (3) </b>	-16	0	0	0	0	0	0
4	2023-03-24	08:52:59	09:28:31	09:28:31:143	65	1	TNT_Think_CSm	fixation	0	5	1000	0	0	1	995	1	+	-16	0	0	0	0	0	0
4	2023-03-24	08:52:59	09:28:32	09:28:32:156	65	2	TNT_Think_CSm	Think	0	5	0	0	0	0	1000	1	THINK	-16	0	0	0	0	0	0
4	2023-03-24	08:52:59	09:28:37	09:28:37:172	65	3	TNT_Think_CSm	TNT_Think_CSm	0	5	0	0	0	0	5000	4	Cue10.jpg	-16	0	0	0	0	0	0
4	2023-03-24	08:52:59	09:28:38	09:28:38:015	65	4	TNT_Think_CSm	Intrusion	0	1500	3000	0	81	1	825	1	How <b>often</b> did you <b>think</b> about the <b>scene</b>?   <center><br><b>NEVER (1)    BRIEFLY (2)   OFTEN (3) </b>	-16	0	0	0	0	0	0
4	2023-03-24	08:52:59	09:28:42	09:28:42:676	66	1	Expectancy_rating	fixation	0	5	1500	0	0	1	1495	1	+	-9	0	0	0	0	0	0
4	2023-03-24	08:52:59	09:28:51	09:28:51:505	66	2	Expectancy_rating	expectancy_rating	0	1500	0	0	100	0	8814	1	When you saw the <b>object</b>,   to what <b>degree (0-100%)</b> did you expect the <b>unpleasant sound to occur</b>?	-16	7	Cue7.jpg	-16	0	0	0
4	2023-03-24	08:52:59	09:28:53	09:28:53:505	67	1	Expectancy_rating	fixation	0	5	500	0	0	1	495	1	+	-12	0	0	0	0	0	0
4	2023-03-24	08:52:59	09:29:00	09:29:00:656	67	2	Expectancy_rating	expectancy_rating	0	1000	0	0	68	0	7131	1	When you saw the <b>object</b>,   to what <b>degree (0-100%)</b> did you expect the <b>unpleasant sound to occur</b>?	-16	4	Cue4.jpg	-16	0	0	0
4	2023-03-24	08:52:59	09:29:02	09:29:02:655	68	1	Expectancy_rating	fixation	0	5	1000	0	0	1	995	1	+	-14	0	0	0	0	0	0
4	2023-03-24	08:52:59	09:29:08	09:29:08:307	68	2	Expectancy_rating	expectancy_rating	0	500	0	0	62	0	5621	1	When you saw the <b>object</b>,   to what <b>degree (0-100%)</b> did you expect the <b>unpleasant sound to occur</b>?	-11	18	Cue18.jpg	-11	0	0	0
4	2023-03-24	08:52:59	09:29:10	09:29:10:307	69	1	Expectancy_rating	fixation	0	5	1500	0	0	1	1495	1	+	-14	0	0	0	0	0	0
4	2023-03-24	08:52:59	09:29:15	09:29:15:340	69	2	Expectancy_rating	expectancy_rating	0	1000	0	0	68	0	5011	1	When you saw the <b>object</b>,   to what <b>degree (0-100%)</b> did you expect the <b>unpleasant sound to occur</b>?	-16	25	Cue25.jpg	-16	0	0	0
4	2023-03-24	08:52:59	09:29:16	09:29:16:839	70	1	Expectancy_rating	fixation	0	5	500	0	0	1	495	1	+	-15	0	0	0	0	0	0
4	2023-03-24	08:52:59	09:29:20	09:29:20:024	70	2	Expectancy_rating	expectancy_rating	0	500	0	0	50	0	4157	1	When you saw the <b>object</b>,   to what <b>degree (0-100%)</b> did you expect the <b>unpleasant sound to occur</b>?	-10	27	Cue27.jpg	-10	0	0	0
4	2023-03-24	08:52:59	09:29:22	09:29:22:022	71	1	Expectancy_rating	fixation	0	5	1500	0	0	1	1495	1	+	-15	0	0	0	0	0	0
4	2023-03-24	08:52:59	09:29:25	09:29:25:107	71	2	Expectancy_rating	expectancy_rating	0	1500	0	0	4	0	3061	1	When you saw the <b>object</b>,   to what <b>degree (0-100%)</b> did you expect the <b>unpleasant sound to occur</b>?	-12	12	Cue12.jpg	-12	0	0	0
4	2023-03-24	08:52:59	09:29:28	09:29:28:605	72	1	Expectancy_rating	fixation	0	5	1000	0	0	1	995	1	+	-15	0	0	0	0	0	0
4	2023-03-24	08:52:59	09:29:31	09:29:31:524	72	2	Expectancy_rating	expectancy_rating	0	500	0	0	6	0	2885	1	When you saw the <b>object</b>,   to what <b>degree (0-100%)</b> did you expect the <b>unpleasant sound to occur</b>?	-11	10	Cue10.jpg	-11	0	0	0
4	2023-03-24	08:52:59	09:29:32	09:29:32:523	73	1	Expectancy_rating	fixation	0	5	500	0	0	1	495	1	+	-15	0	0	0	0	0	0
4	2023-03-24	08:52:59	09:29:36	09:29:36:592	73	2	Expectancy_rating	expectancy_rating	0	1000	0	0	65	0	4041	1	When you saw the <b>object</b>,   to what <b>degree (0-100%)</b> did you expect the <b>unpleasant sound to occur</b>?	-9	5	Cue5.jpg	-9	0	0	0
4	2023-03-24	08:52:59	09:29:38	09:29:38:590	74	1	Expectancy_rating	fixation	0	5	1000	0	0	1	995	1	+	-15	0	0	0	0	0	0
4	2023-03-24	08:52:59	09:29:41	09:29:41:258	74	2	Expectancy_rating	expectancy_rating	0	1500	0	0	7	0	3646	1	When you saw the <b>object</b>,   to what <b>degree (0-100%)</b> did you expect the <b>unpleasant sound to occur</b>?	-10	35	Cue35.jpg	-10	0	0	0
4	2023-03-24	08:52:59	09:29:43	09:29:43:258	75	1	Expectancy_rating	fixation	0	5	500	0	0	1	495	1	+	-13	0	0	0	0	0	0
4	2023-03-24	08:52:59	09:29:46	09:29:46:125	75	2	Expectancy_rating	expectancy_rating	0	500	0	0	74	0	2843	1	When you saw the <b>object</b>,   to what <b>degree (0-100%)</b> did you expect the <b>unpleasant sound to occur</b>?	-16	22	Cue22.jpg	-16	0	0	0
4	2023-03-24	08:52:59	09:29:48	09:29:48:124	76	1	Expectancy_rating	fixation	0	5	1500	0	0	1	1495	1	+	-15	0	0	0	0	0	0
4	2023-03-24	08:52:59	09:29:54	09:29:54:193	76	2	Expectancy_rating	expectancy_rating	0	1500	0	0	81	0	6047	1	When you saw the <b>object</b>,   to what <b>degree (0-100%)</b> did you expect the <b>unpleasant sound to occur</b>?	-12	20	Cue20.jpg	-12	0	0	0
4	2023-03-24	08:52:59	09:29:56	09:29:56:191	77	1	Expectancy_rating	fixation	0	5	500	0	0	1	495	1	+	-14	0	0	0	0	0	0
4	2023-03-24	08:52:59	09:30:00	09:30:00:827	77	2	Expectancy_rating	expectancy_rating	0	1000	0	0	77	0	3612	1	When you saw the <b>object</b>,   to what <b>degree (0-100%)</b> did you expect the <b>unpleasant sound to occur</b>?	-12	39	Cue39.jpg	-12	0	0	0
4	2023-03-24	08:52:59	09:30:02	09:30:02:825	78	1	Expectancy_rating	fixation	0	5	1000	0	0	1	995	1	+	-15	0	0	0	0	0	0
4	2023-03-24	08:52:59	09:30:07	09:30:07:877	78	2	Expectancy_rating	expectancy_rating	0	1500	0	0	50	0	5026	1	When you saw the <b>object</b>,   to what <b>degree (0-100%)</b> did you expect the <b>unpleasant sound to occur</b>?	-12	3	Cue3.jpg	-12	0	0	0
4	2023-03-24	08:52:59	09:30:10	09:30:10:876	79	1	Expectancy_rating	fixation	0	5	1500	0	0	1	1495	1	+	-15	0	0	0	0	0	0
4	2023-03-24	08:52:59	09:30:13	09:30:13:910	79	2	Expectancy_rating	expectancy_rating	0	1000	0	0	2	0	2984	1	When you saw the <b>object</b>,   to what <b>degree (0-100%)</b> did you expect the <b>unpleasant sound to occur</b>?	-16	38	Cue38.jpg	-16	0	0	0
4	2023-03-24	08:52:59	09:30:16	09:30:16:393	80	1	Expectancy_rating	fixation	0	5	1500	0	0	1	1495	1	+	-15	0	0	0	0	0	0
4	2023-03-24	08:52:59	09:30:19	09:30:19:745	80	2	Expectancy_rating	expectancy_rating	0	500	0	0	1	0	3331	1	When you saw the <b>object</b>,   to what <b>degree (0-100%)</b> did you expect the <b>unpleasant sound to occur</b>?	-11	36	Cue36.jpg	-11	0	0	0
4	2023-03-24	08:52:59	09:30:20	09:30:20:743	81	1	Expectancy_rating	fixation	0	5	500	0	0	1	495	1	+	-15	0	0	0	0	0	0
4	2023-03-24	08:52:59	09:30:24	09:30:24:477	81	2	Expectancy_rating	expectancy_rating	0	1500	0	0	61	0	3709	1	When you saw the <b>object</b>,   to what <b>degree (0-100%)</b> did you expect the <b>unpleasant sound to occur</b>?	-9	9	Cue9.jpg	-9	0	0	0
4	2023-03-24	08:52:59	09:30:26	09:30:26:976	82	1	Expectancy_rating	fixation	0	5	1000	0	0	1	995	1	+	-15	0	0	0	0	0	0
4	2023-03-24	08:52:59	09:30:30	09:30:30:695	82	2	Expectancy_rating	expectancy_rating	0	500	0	0	5	0	3691	1	When you saw the <b>object</b>,   to what <b>degree (0-100%)</b> did you expect the <b>unpleasant sound to occur</b>?	-12	14	Cue14.jpg	-12	0	0	0
4	2023-03-24	08:52:59	09:30:32	09:30:32:694	83	1	Expectancy_rating	fixation	0	5	1500	0	0	1	1495	1	+	-14	0	0	0	0	0	0
4	2023-03-24	08:52:59	09:30:35	09:30:35:528	83	2	Expectancy_rating	expectancy_rating	0	1000	0	0	50	0	2806	1	When you saw the <b>object</b>,   to what <b>degree (0-100%)</b> did you expect the <b>unpleasant sound to occur</b>?	-16	16	Cue16.jpg	-16	0	0	0
4	2023-03-24	08:52:59	09:30:36	09:30:36:031	84	1	Expectancy_rating	fixation	0	5	500	0	0	1	495	1	+	-9	0	0	0	0	0	0
4	2023-03-24	08:52:59	09:30:39	09:30:39:111	84	2	Expectancy_rating	expectancy_rating	0	500	0	0	9	0	3033	1	When you saw the <b>object</b>,   to what <b>degree (0-100%)</b> did you expect the <b>unpleasant sound to occur</b>?	-16	1	Cue1.jpg	-16	0	0	0
4	2023-03-24	08:52:59	09:30:41	09:30:41:594	85	1	Expectancy_rating	fixation	0	5	1000	0	0	1	995	1	+	-15	0	0	0	0	0	0
4	2023-03-24	08:52:59	09:30:44	09:30:44:628	85	2	Expectancy_rating	expectancy_rating	0	1500	0	0	7	0	3002	1	When you saw the <b>object</b>,   to what <b>degree (0-100%)</b> did you expect the <b>unpleasant sound to occur</b>?	-12	11	Cue11.jpg	-12	0	0	0
4	2023-03-24	08:52:59	09:30:46	09:30:46:627	86	1	Expectancy_rating	fixation	0	5	500	0	0	1	495	1	+	-15	0	0	0	0	0	0
4	2023-03-24	08:52:59	09:30:50	09:30:50:496	86	2	Expectancy_rating	expectancy_rating	0	1000	0	0	81	0	3840	1	When you saw the <b>object</b>,   to what <b>degree (0-100%)</b> did you expect the <b>unpleasant sound to occur</b>?	-12	24	Cue24.jpg	-12	0	0	0
4	2023-03-24	08:52:59	09:30:52	09:30:52:995	87	1	Expectancy_rating	fixation	0	5	1500	0	0	1	1495	1	+	-15	0	0	0	0	0	0
4	2023-03-24	08:52:59	09:30:55	09:30:55:013	87	2	Expectancy_rating	expectancy_rating	0	1000	0	0	79	0	2985	1	When you saw the <b>object</b>,   to what <b>degree (0-100%)</b> did you expect the <b>unpleasant sound to occur</b>?	-16	34	Cue34.jpg	-16	0	0	0
4	2023-03-24	08:52:59	09:30:57	09:30:57:012	88	1	Expectancy_rating	fixation	0	5	1000	0	0	1	995	1	+	-14	0	0	0	0	0	0
4	2023-03-24	08:52:59	09:31:04	09:31:04:046	88	2	Expectancy_rating	expectancy_rating	0	500	0	0	6	0	6984	1	When you saw the <b>object</b>,   to what <b>degree (0-100%)</b> did you expect the <b>unpleasant sound to occur</b>?	-12	32	Cue32.jpg	-12	0	0	0
4	2023-03-24	08:52:59	09:31:05	09:31:05:029	89	1	Expectancy_rating	fixation	0	5	500	0	0	1	495	1	+	-15	0	0	0	0	0	0
4	2023-03-24	08:52:59	09:31:10	09:31:10:764	89	2	Expectancy_rating	expectancy_rating	0	1500	0	0	64	0	4711	1	When you saw the <b>object</b>,   to what <b>degree (0-100%)</b> did you expect the <b>unpleasant sound to occur</b>?	-10	2	Cue2.jpg	-10	0	0	0
4	2023-03-24	08:52:59	09:31:13	09:31:13:763	90	1	Expectancy_rating	fixation	0	5	1500	0	0	1	1495	1	+	-15	0	0	0	0	0	0
4	2023-03-24	08:52:59	09:31:16	09:31:16:847	90	2	Expectancy_rating	expectancy_rating	0	500	0	0	2	0	3033	1	When you saw the <b>object</b>,   to what <b>degree (0-100%)</b> did you expect the <b>unpleasant sound to occur</b>?	-10	21	Cue21.jpg	-10	0	0	0
4	2023-03-24	08:52:59	09:31:18	09:31:18:329	91	1	Expectancy_rating	fixation	0	5	1000	0	0	1	995	1	+	-15	0	0	0	0	0	0
4	2023-03-24	08:52:59	09:31:21	09:31:21:715	91	2	Expectancy_rating	expectancy_rating	0	1500	0	0	64	0	3362	1	When you saw the <b>object</b>,   to what <b>degree (0-100%)</b> did you expect the <b>unpleasant sound to occur</b>?	-12	29	Cue29.jpg	-12	0	0	0
4	2023-03-24	08:52:59	09:31:23	09:31:23:713	92	1	Expectancy_rating	fixation	0	5	500	0	0	1	495	1	+	-14	0	0	0	0	0	0
4	2023-03-24	08:52:59	09:31:26	09:31:26:164	92	2	Expectancy_rating	expectancy_rating	0	1000	0	0	96	0	3426	1	When you saw the <b>object</b>,   to what <b>degree (0-100%)</b> did you expect the <b>unpleasant sound to occur</b>?	-12	41	Object1.jpg	-12	0	0	0
4	2023-03-24	08:52:59	09:31:29	09:31:29:665	93	1	Expectancy_rating	fixation	0	5	1500	0	0	1	1495	1	+	-10	0	0	0	0	0	0
4	2023-03-24	08:52:59	09:31:32	09:31:32:749	93	2	Expectancy_rating	expectancy_rating	0	1500	0	0	0	0	3052	1	When you saw the <b>object</b>,   to what <b>degree (0-100%)</b> did you expect the <b>unpleasant sound to occur</b>?	-16	45	Object5.jpg	-16	0	0	0
4	2023-03-24	08:52:59	09:31:34	09:31:34:248	94	1	Expectancy_rating	fixation	0	5	1000	0	0	1	995	1	+	-15	0	0	0	0	0	0
4	2023-03-24	08:52:59	09:31:36	09:31:36:282	94	2	Expectancy_rating	expectancy_rating	0	500	0	0	50	0	2004	1	When you saw the <b>object</b>,   to what <b>degree (0-100%)</b> did you expect the <b>unpleasant sound to occur</b>?	-12	33	Cue33.jpg	-12	0	0	0
4	2023-03-24	08:52:59	09:31:38	09:31:38:780	95	1	Expectancy_rating	fixation	0	5	1000	0	0	1	995	1	+	-14	0	0	0	0	0	0
4	2023-03-24	08:52:59	09:31:41	09:31:41:549	95	2	Expectancy_rating	expectancy_rating	0	1000	0	0	100	0	2743	1	When you saw the <b>object</b>,   to what <b>degree (0-100%)</b> did you expect the <b>unpleasant sound to occur</b>?	-12	43	Object3.jpg	-12	0	0	0
4	2023-03-24	08:52:59	09:31:42	09:31:42:048	96	1	Expectancy_rating	fixation	0	5	500	0	0	1	495	1	+	-14	0	0	0	0	0	0
4	2023-03-24	08:52:59	09:31:44	09:31:44:882	96	2	Expectancy_rating	expectancy_rating	0	1500	0	0	50	0	1804	1	When you saw the <b>object</b>,   to what <b>degree (0-100%)</b> did you expect the <b>unpleasant sound to occur</b>?	-16	23	Cue23.jpg	-16	0	0	0
4	2023-03-24	08:52:59	09:31:47	09:31:47:881	97	1	Expectancy_rating	fixation	0	5	1500	0	0	1	1495	1	+	-15	0	0	0	0	0	0
4	2023-03-24	08:52:59	09:31:51	09:31:51:800	97	2	Expectancy_rating	expectancy_rating	0	500	0	0	71	0	3890	1	When you saw the <b>object</b>,   to what <b>degree (0-100%)</b> did you expect the <b>unpleasant sound to occur</b>?	-12	28	Cue28.jpg	-12	0	0	0
4	2023-03-24	08:52:59	09:31:52	09:31:52:298	98	1	Expectancy_rating	fixation	0	5	1000	0	0	1	995	1	+	-15	0	0	0	0	0	0
4	2023-03-24	08:52:59	09:31:56	09:31:56:400	98	2	Expectancy_rating	expectancy_rating	0	1000	0	0	90	0	3073	1	When you saw the <b>object</b>,   to what <b>degree (0-100%)</b> did you expect the <b>unpleasant sound to occur</b>?	-10	47	Object7.jpg	-10	0	0	0
4	2023-03-24	08:52:59	09:31:57	09:31:57:899	99	1	Expectancy_rating	fixation	0	5	500	0	0	1	495	1	+	-15	0	0	0	0	0	0
4	2023-03-24	08:52:59	09:32:00	09:32:00:783	99	2	Expectancy_rating	expectancy_rating	0	1500	0	0	2	0	2865	1	When you saw the <b>object</b>,   to what <b>degree (0-100%)</b> did you expect the <b>unpleasant sound to occur</b>?	-12	46	Object6.jpg	-12	0	0	0
4	2023-03-24	08:52:59	09:32:03	09:32:03:782	100	1	Expectancy_rating	fixation	0	5	1500	0	0	1	1495	1	+	-15	0	0	0	0	0	0
4	2023-03-24	08:52:59	09:32:06	09:32:06:00	100	2	Expectancy_rating	expectancy_rating	0	500	0	0	0	0	3189	1	When you saw the <b>object</b>,   to what <b>degree (0-100%)</b> did you expect the <b>unpleasant sound to occur</b>?	-10	48	Object8.jpg	-10	0	0	0
4	2023-03-24	08:52:59	09:32:08	09:32:08:999	101	1	Expectancy_rating	fixation	0	5	1500	0	0	1	1495	1	+	-14	0	0	0	0	0	0
4	2023-03-24	08:52:59	09:32:12	09:32:12:135	101	2	Expectancy_rating	expectancy_rating	0	1000	0	0	18	0	4108	1	When you saw the <b>object</b>,   to what <b>degree (0-100%)</b> did you expect the <b>unpleasant sound to occur</b>?	-10	6	Cue6.jpg	-10	0	0	0
4	2023-03-24	08:52:59	09:32:14	09:32:14:635	102	1	Expectancy_rating	fixation	0	5	500	0	0	1	495	1	+	-12	0	0	0	0	0	0
4	2023-03-24	08:52:59	09:32:17	09:32:17:218	102	2	Expectancy_rating	expectancy_rating	0	500	0	0	96	0	3563	1	When you saw the <b>object</b>,   to what <b>degree (0-100%)</b> did you expect the <b>unpleasant sound to occur</b>?	-16	40	Cue40.jpg	-16	0	0	0
4	2023-03-24	08:52:59	09:32:19	09:32:19:718	103	1	Expectancy_rating	fixation	0	5	1000	0	0	1	995	1	+	-13	0	0	0	0	0	0
4	2023-03-24	08:52:59	09:32:22	09:32:22:368	103	2	Expectancy_rating	expectancy_rating	0	1500	0	0	6	0	2631	1	When you saw the <b>object</b>,   to what <b>degree (0-100%)</b> did you expect the <b>unpleasant sound to occur</b>?	-16	30	Cue30.jpg	-16	0	0	0
4	2023-03-24	08:52:59	09:32:24	09:32:24:367	104	1	Expectancy_rating	fixation	0	5	500	0	0	1	495	1	+	-14	0	0	0	0	0	0
4	2023-03-24	08:52:59	09:32:26	09:32:26:219	104	2	Expectancy_rating	expectancy_rating	0	1000	0	0	97	0	2828	1	When you saw the <b>object</b>,   to what <b>degree (0-100%)</b> did you expect the <b>unpleasant sound to occur</b>?	-12	44	Object4.jpg	-12	0	0	0
4	2023-03-24	08:52:59	09:32:29	09:32:29:717	105	1	Expectancy_rating	fixation	0	5	1500	0	0	1	1495	1	+	-14	0	0	0	0	0	0
4	2023-03-24	08:52:59	09:32:32	09:32:32:03	105	2	Expectancy_rating	expectancy_rating	0	500	0	0	0	0	3254	1	When you saw the <b>object</b>,   to what <b>degree (0-100%)</b> did you expect the <b>unpleasant sound to occur</b>?	-12	8	Cue8.jpg	-12	0	0	0
4	2023-03-24	08:52:59	09:32:34	09:32:34:501	106	1	Expectancy_rating	fixation	0	5	1000	0	0	1	995	1	+	-14	0	0	0	0	0	0
4	2023-03-24	08:52:59	09:32:36	09:32:36:236	106	2	Expectancy_rating	expectancy_rating	0	1000	0	0	68	0	2711	1	When you saw the <b>object</b>,   to what <b>degree (0-100%)</b> did you expect the <b>unpleasant sound to occur</b>?	-11	31	Cue31.jpg	-11	0	0	0
4	2023-03-24	08:52:59	09:32:38	09:32:38:735	107	1	Expectancy_rating	fixation	0	5	500	0	0	1	495	1	+	-15	0	0	0	0	0	0
4	2023-03-24	08:52:59	09:32:43	09:32:43:986	107	2	Expectancy_rating	expectancy_rating	0	1500	0	0	12	0	5229	1	When you saw the <b>object</b>,   to what <b>degree (0-100%)</b> did you expect the <b>unpleasant sound to occur</b>?	-12	19	Cue19.jpg	-12	0	0	0
4	2023-03-24	08:52:59	09:32:46	09:32:46:986	108	1	Expectancy_rating	fixation	0	5	1500	0	0	1	1495	1	+	-14	0	0	0	0	0	0
4	2023-03-24	08:52:59	09:32:51	09:32:51:820	108	2	Expectancy_rating	expectancy_rating	0	500	0	0	93	0	4802	1	When you saw the <b>object</b>,   to what <b>degree (0-100%)</b> did you expect the <b>unpleasant sound to occur</b>?	-9	26	Cue26.jpg	-9	0	0	0
4	2023-03-24	08:52:59	09:32:53	09:32:53:318	109	1	Expectancy_rating	fixation	0	5	1000	0	0	1	995	1	+	-15	0	0	0	0	0	0
4	2023-03-24	08:52:59	09:32:56	09:32:56:104	109	2	Expectancy_rating	expectancy_rating	0	1000	0	0	65	0	3757	1	When you saw the <b>object</b>,   to what <b>degree (0-100%)</b> did you expect the <b>unpleasant sound to occur</b>?	-12	15	Cue15.jpg	-12	0	0	0
4	2023-03-24	08:52:59	09:32:58	09:32:58:103	110	1	Expectancy_rating	fixation	0	5	1000	0	0	1	995	1	+	-15	0	0	0	0	0	0
4	2023-03-24	08:52:59	09:33:05	09:33:05:537	110	2	Expectancy_rating	expectancy_rating	0	1500	0	0	8	0	6381	1	When you saw the <b>object</b>,   to what <b>degree (0-100%)</b> did you expect the <b>unpleasant sound to occur</b>?	-12	17	Cue17.jpg	-12	0	0	0
4	2023-03-24	08:52:59	09:33:08	09:33:08:522	111	1	Expectancy_rating	fixation	0	5	1500	0	0	1	1495	1	+	-10	0	0	0	0	0	0
4	2023-03-24	08:52:59	09:33:17	09:33:17:805	111	2	Expectancy_rating	expectancy_rating	0	1000	0	0	14	0	9260	1	When you saw the <b>object</b>,   to what <b>degree (0-100%)</b> did you expect the <b>unpleasant sound to occur</b>?	-16	37	Cue37.jpg	-16	0	0	0
4	2023-03-24	08:52:59	09:33:19	09:33:19:304	112	1	Expectancy_rating	fixation	0	5	500	0	0	1	495	1	+	-15	0	0	0	0	0	0
4	2023-03-24	08:52:59	09:33:23	09:33:23:871	112	2	Expectancy_rating	expectancy_rating	0	500	0	0	0	0	4516	1	When you saw the <b>object</b>,   to what <b>degree (0-100%)</b> did you expect the <b>unpleasant sound to occur</b>?	-11	42	Object2.jpg	-11	0	0	0
4	2023-03-24	08:52:59	09:33:25	09:33:25:855	113	1	Expectancy_rating	fixation	0	5	1500	0	0	1	1495	1	+	-15	0	0	0	0	0	0
4	2023-03-24	08:52:59	09:33:29	09:33:29:290	113	2	Expectancy_rating	expectancy_rating	0	1500	0	0	1	0	4405	1	When you saw the <b>object</b>,   to what <b>degree (0-100%)</b> did you expect the <b>unpleasant sound to occur</b>?	-12	13	Cue13.jpg	-12	0	0	0
4	2023-03-24	08:52:59	09:33:46	09:33:46:822	114	1	continue_TNT	continue_TNT	0	5	0	0	0	0	15000	1	<center> <br><br><br> We will now continue with the next block of the attention task.   <br><br><br><center>Keep your fingers balanced on the <b>1, 2 and 3 </b>on the keyboard throughout the task   <br><br>to give the rating how well you were <b>able to think</b> or <b>not think</b> (1 = NEVER, 2 = BRIEFLY, 3 = OFTEN).  <br><br><br><br> <b>Press</b> the <b>button</b> on the <b>watch</b> for 1 second before you start!	-14	0	0	0	0	0	0
4	2023-03-24	08:52:59	09:33:47	09:33:47:324	115	1	TNT_Think_CSp	fixation	0	5	500	0	0	1	495	1	+	-15	0	0	0	0	0	0
4	2023-03-24	08:52:59	09:33:48	09:33:48:340	115	2	TNT_Think_CSp	Think	0	5	0	0	0	0	1000	1	THINK	-16	0	0	0	0	0	0
4	2023-03-24	08:52:59	09:33:53	09:33:53:357	115	3	TNT_Think_CSp	TNT_Think_CSp	0	5	0	0	0	0	5000	6	Cue5.jpg	-16	0	0	0	0	0	0
4	2023-03-24	08:52:59	09:33:53	09:33:53:893	115	4	TNT_Think_CSp	Intrusion	0	1500	3000	0	81	1	519	1	How <b>often</b> did you <b>think</b> about the <b>scene</b>?   <center><br><b>NEVER (1)    BRIEFLY (2)   OFTEN (3) </b>	-16	0	0	0	0	0	0
4	2023-03-24	08:52:59	09:33:57	09:33:57:359	116	1	TNT_NoThink_CSm	fixation	0	5	1000	0	0	1	995	1	+	-15	0	0	0	0	0	0
4	2023-03-24	08:52:59	09:33:58	09:33:58:374	116	2	TNT_NoThink_CSm	NoThink	0	5	0	0	0	0	1000	1	DON'T THINK	-16	0	0	0	0	0	0
4	2023-03-24	08:52:59	09:34:03	09:34:03:393	116	3	TNT_NoThink_CSm	TNT_NoThink_CSm	0	5	0	0	0	0	5000	3	Cue13.jpg	-16	0	0	0	0	0	0
4	2023-03-24	08:52:59	09:34:03	09:34:03:719	116	4	TNT_NoThink_CSm	Intrusion	0	1000	3000	0	80	1	309	1	How <b>often</b> did you <b>think</b> about the <b>scene</b>?   <center><br><b>NEVER (1)    BRIEFLY (2)   OFTEN (3) </b>	-16	0	0	0	0	0	0
4	2023-03-24	08:52:59	09:34:06	09:34:06:896	117	1	TNT_NoThink_CSm	fixation	0	5	500	0	0	1	495	1	+	-9	0	0	0	0	0	0
4	2023-03-24	08:52:59	09:34:07	09:34:07:910	117	2	TNT_NoThink_CSm	NoThink	0	5	0	0	0	0	1000	1	DON'T THINK	-16	0	0	0	0	0	0
4	2023-03-24	08:52:59	09:34:12	09:34:12:927	117	3	TNT_NoThink_CSm	TNT_NoThink_CSm	0	5	0	0	0	0	5000	4	Cue27.jpg	-16	0	0	0	0	0	0
4	2023-03-24	08:52:59	09:34:13	09:34:13:447	117	4	TNT_NoThink_CSm	Intrusion	0	500	3000	0	80	1	503	1	How <b>often</b> did you <b>think</b> about the <b>scene</b>?   <center><br><b>NEVER (1)    BRIEFLY (2)   OFTEN (3) </b>	-16	0	0	0	0	0	0
4	2023-03-24	08:52:59	09:34:17	09:34:17:431	118	1	TNT_Think_CSm	fixation	0	5	1500	0	0	1	1495	1	+	-9	0	0	0	0	0	0
4	2023-03-24	08:52:59	09:34:18	09:34:18:444	118	2	TNT_Think_CSm	Think	0	5	0	0	0	0	1000	1	THINK	-16	0	0	0	0	0	0
4	2023-03-24	08:52:59	09:34:23	09:34:23:461	118	3	TNT_Think_CSm	TNT_Think_CSm	0	5	0	0	0	0	5000	5	Cue23.jpg	-16	0	0	0	0	0	0
4	2023-03-24	08:52:59	09:34:23	09:34:23:119	118	4	TNT_Think_CSm	Intrusion	0	1000	3000	0	81	1	641	1	How <b>often</b> did you <b>think</b> about the <b>scene</b>?   <center><br><b>NEVER (1)    BRIEFLY (2)   OFTEN (3) </b>	-16	0	0	0	0	0	0
4	2023-03-24	08:52:59	09:34:27	09:34:27:465	119	1	TNT_Think_CSp	fixation	0	5	1000	0	0	1	995	1	+	-9	0	0	0	0	0	0
4	2023-03-24	08:52:59	09:34:28	09:34:28:478	119	2	TNT_Think_CSp	Think	0	5	0	0	0	0	1000	1	THINK	-16	0	0	0	0	0	0
4	2023-03-24	08:52:59	09:34:33	09:34:33:494	119	3	TNT_Think_CSp	TNT_Think_CSp	0	5	0	0	0	0	5000	5	Cue18.jpg	-16	0	0	0	0	0	0
4	2023-03-24	08:52:59	09:34:34	09:34:34:375	119	4	TNT_Think_CSp	Intrusion	0	500	3000	0	81	1	863	1	How <b>often</b> did you <b>think</b> about the <b>scene</b>?   <center><br><b>NEVER (1)    BRIEFLY (2)   OFTEN (3) </b>	-16	0	0	0	0	0	0
4	2023-03-24	08:52:59	09:34:37	09:34:37:499	120	1	TNT_Object_CSp	fixation	0	5	1000	0	0	1	995	1	+	1	0	0	0	0	0	0
4	2023-03-24	08:52:59	09:34:38	09:34:38:512	120	2	TNT_Object_CSp	Passive	0	5	0	0	0	0	1000	1	VIEW	-16	0	0	0	0	0	0
4	2023-03-24	08:52:59	09:34:43	09:34:43:529	120	3	TNT_Object_CSp	TNT_Object_CSp	0	1500	0	0	0	0	5000	1	Object4.jpg	-16	0	0	0	0	0	0
4	2023-03-24	08:52:59	09:34:45	09:34:45:528	121	1	TNT_Object_CSp	fixation	0	5	500	0	0	1	495	1	+	-3	0	0	0	0	0	0
4	2023-03-24	08:52:59	09:34:46	09:34:46:545	121	2	TNT_Object_CSp	Passive	0	5	0	0	0	0	1000	1	VIEW	-16	0	0	0	0	0	0
4	2023-03-24	08:52:59	09:34:51	09:34:51:562	121	3	TNT_Object_CSp	TNT_Object_CSp	0	500	0	0	0	0	5000	3	Object3.jpg	-16	0	0	0	0	0	0
4	2023-03-24	08:52:59	09:34:53	09:34:53:562	122	1	TNT_NoThink_CSm	fixation	0	5	1500	0	0	1	1495	1	+	-9	0	0	0	0	0	0
4	2023-03-24	08:52:59	09:34:54	09:34:54:580	122	2	TNT_NoThink_CSm	NoThink	0	5	0	0	0	0	1000	1	DON'T THINK	-16	0	0	0	0	0	0
4	2023-03-24	08:52:59	09:34:59	09:34:59:596	122	3	TNT_NoThink_CSm	TNT_NoThink_CSm	0	5	0	0	0	0	5000	5	Cue16.jpg	-16	0	0	0	0	0	0
4	2023-03-24	08:52:59	09:34:59	09:34:59:07	122	4	TNT_NoThink_CSm	Intrusion	0	1500	3000	0	79	1	394	1	How <b>often</b> did you <b>think</b> about the <b>scene</b>?   <center><br><b>NEVER (1)    BRIEFLY (2)   OFTEN (3) </b>	-16	0	0	0	0	0	0
4	2023-03-24	08:52:59	09:35:03	09:35:03:100	123	1	TNT_NoThink_CSp	fixation	0	5	1500	0	0	1	1495	1	+	-9	0	0	0	0	0	0
4	2023-03-24	08:52:59	09:35:04	09:35:04:114	123	2	TNT_NoThink_CSp	NoThink	0	5	0	0	0	0	1000	1	DON'T THINK	-16	0	0	0	0	0	0
4	2023-03-24	08:52:59	09:35:09	09:35:09:130	123	3	TNT_NoThink_CSp	TNT_NoThink_CSp	0	5	0	0	0	0	5000	6	Cue34.jpg	-16	0	0	0	0	0	0
4	2023-03-24	08:52:59	09:35:10	09:35:10:855	123	4	TNT_NoThink_CSp	Intrusion	0	1500	3000	0	79	1	707	1	How <b>often</b> did you <b>think</b> about the <b>scene</b>?   <center><br><b>NEVER (1)    BRIEFLY (2)   OFTEN (3) </b>	-16	0	0	0	0	0	0
4	2023-03-24	08:52:59	09:35:13	09:35:13:134	124	1	TNT_NoThink_CSp	fixation	0	5	1000	0	0	1	995	1	+	-8	0	0	0	0	0	0
4	2023-03-24	08:52:59	09:35:14	09:35:14:148	124	2	TNT_NoThink_CSp	NoThink	0	5	0	0	0	0	1000	1	DON'T THINK	-16	0	0	0	0	0	0
4	2023-03-24	08:52:59	09:35:19	09:35:19:164	124	3	TNT_NoThink_CSp	TNT_NoThink_CSp	0	5	0	0	0	0	5000	3	Cue15.jpg	-16	0	0	0	0	0	0
4	2023-03-24	08:52:59	09:35:21	09:35:21:071	124	4	TNT_NoThink_CSp	Intrusion	0	500	3000	0	79	1	1889	1	How <b>often</b> did you <b>think</b> about the <b>scene</b>?   <center><br><b>NEVER (1)    BRIEFLY (2)   OFTEN (3) </b>	-16	0	0	0	0	0	0
4	2023-03-24	08:52:59	09:35:23	09:35:23:668	125	1	TNT_NoThink_CSm	fixation	0	5	500	0	0	1	495	1	+	-9	0	0	0	0	0	0
4	2023-03-24	08:52:59	09:35:24	09:35:24:682	125	2	TNT_NoThink_CSm	NoThink	0	5	0	0	0	0	1000	1	DON'T THINK	-16	0	0	0	0	0	0
4	2023-03-24	08:52:59	09:35:29	09:35:29:698	125	3	TNT_NoThink_CSm	TNT_NoThink_CSm	0	5	0	0	0	0	5000	1	Cue32.jpg	-16	0	0	0	0	0	0
4	2023-03-24	08:52:59	09:35:29	09:35:29:183	125	4	TNT_NoThink_CSm	Intrusion	0	1000	3000	0	79	1	467	1	How <b>often</b> did you <b>think</b> about the <b>scene</b>?   <center><br><b>NEVER (1)    BRIEFLY (2)   OFTEN (3) </b>	-16	0	0	0	0	0	0
4	2023-03-24	08:52:59	09:35:33	09:35:33:202	126	1	TNT_NoThink_CSp	fixation	0	5	1500	0	0	1	1495	1	+	-8	0	0	0	0	0	0
4	2023-03-24	08:52:59	09:35:34	09:35:34:215	126	2	TNT_NoThink_CSp	NoThink	0	5	0	0	0	0	1000	1	DON'T THINK	-16	0	0	0	0	0	0
4	2023-03-24	08:52:59	09:35:39	09:35:39:232	126	3	TNT_NoThink_CSp	TNT_NoThink_CSp	0	5	0	0	0	0	5000	5	Cue3.jpg	-16	0	0	0	0	0	0
4	2023-03-24	08:52:59	09:35:40	09:35:40:175	126	4	TNT_NoThink_CSp	Intrusion	0	500	3000	0	80	1	925	1	How <b>often</b> did you <b>think</b> about the <b>scene</b>?   <center><br><b>NEVER (1)    BRIEFLY (2)   OFTEN (3) </b>	-16	0	0	0	0	0	0
4	2023-03-24	08:52:59	09:35:43	09:35:43:735	127	1	TNT_Object_CSm	fixation	0	5	500	0	0	1	495	1	+	-16	0	0	0	0	0	0
4	2023-03-24	08:52:59	09:35:44	09:35:44:749	127	2	TNT_Object_CSm	Passive	0	5	0	0	0	0	1000	1	VIEW	-16	0	0	0	0	0	0
4	2023-03-24	08:52:59	09:35:49	09:35:49:766	127	3	TNT_Object_CSm	TNT_Object_CSm	0	1500	0	0	0	0	5000	3	Object8.jpg	-16	0	0	0	0	0	0
4	2023-03-24	08:52:59	09:35:51	09:35:51:265	128	1	TNT_Think_CSp	fixation	0	5	1000	0	0	1	995	1	+	-4	0	0	0	0	0	0
4	2023-03-24	08:52:59	09:35:52	09:35:52:283	128	2	TNT_Think_CSp	Think	0	5	0	0	0	0	1000	1	THINK	-16	0	0	0	0	0	0
4	2023-03-24	08:52:59	09:35:58	09:35:58:300	128	3	TNT_Think_CSp	TNT_Think_CSp	0	5	0	0	0	0	5000	1	Cue2.jpg	-16	0	0	0	0	0	0
4	2023-03-24	08:52:59	09:35:59	09:35:59:719	128	4	TNT_Think_CSp	Intrusion	0	1500	3000	0	81	1	1402	1	How <b>often</b> did you <b>think</b> about the <b>scene</b>?   <center><br><b>NEVER (1)    BRIEFLY (2)   OFTEN (3) </b>	-16	0	0	0	0	0	0
4	2023-03-24	08:52:59	09:36:02	09:36:02:803	129	1	TNT_Think_CSp	fixation	0	5	1500	0	0	1	1495	1	+	-9	0	0	0	0	0	0
4	2023-03-24	08:52:59	09:36:03	09:36:03:817	129	2	TNT_Think_CSp	Think	0	5	0	0	0	0	1000	1	THINK	-16	0	0	0	0	0	0
4	2023-03-24	08:52:59	09:36:08	09:36:08:834	129	3	TNT_Think_CSp	TNT_Think_CSp	0	5	0	0	0	0	5000	3	Cue33.jpg	-16	0	0	0	0	0	0
4	2023-03-24	08:52:59	09:36:09	09:36:09:751	129	4	TNT_Think_CSp	Intrusion	0	1000	3000	0	81	1	900	1	How <b>often</b> did you <b>think</b> about the <b>scene</b>?   <center><br><b>NEVER (1)    BRIEFLY (2)   OFTEN (3) </b>	-16	0	0	0	0	0	0
4	2023-03-24	08:52:59	09:36:12	09:36:12:337	130	1	TNT_NoThink_CSm	fixation	0	5	500	0	0	1	495	1	+	-8	0	0	0	0	0	0
4	2023-03-24	08:52:59	09:36:13	09:36:13:351	130	2	TNT_NoThink_CSm	NoThink	0	5	0	0	0	0	1000	1	DON'T THINK	-16	0	0	0	0	0	0
4	2023-03-24	08:52:59	09:36:18	09:36:18:368	130	3	TNT_NoThink_CSm	TNT_NoThink_CSm	0	5	0	0	0	0	5000	6	Cue35.jpg	-16	0	0	0	0	0	0
4	2023-03-24	08:52:59	09:36:18	09:36:18:711	130	4	TNT_NoThink_CSm	Intrusion	0	1000	3000	0	80	1	326	1	How <b>often</b> did you <b>think</b> about the <b>scene</b>?   <center><br><b>NEVER (1)    BRIEFLY (2)   OFTEN (3) </b>	-16	0	0	0	0	0	0
4	2023-03-24	08:52:59	09:36:22	09:36:22:372	131	1	TNT_NoThink_CSp	fixation	0	5	1000	0	0	1	995	1	+	-8	0	0	0	0	0	0
4	2023-03-24	08:52:59	09:36:23	09:36:23:385	131	2	TNT_NoThink_CSp	NoThink	0	5	0	0	0	0	1000	1	DON'T THINK	-16	0	0	0	0	0	0
4	2023-03-24	08:52:59	09:36:28	09:36:28:402	131	3	TNT_NoThink_CSp	TNT_NoThink_CSp	0	5	0	0	0	0	5000	4	Cue26.jpg	-16	0	0	0	0	0	0
4	2023-03-24	08:52:59	09:36:29	09:36:29:815	131	4	TNT_NoThink_CSp	Intrusion	0	1500	3000	0	79	1	1396	1	How <b>often</b> did you <b>think</b> about the <b>scene</b>?   <center><br><b>NEVER (1)    BRIEFLY (2)   OFTEN (3) </b>	-16	0	0	0	0	0	0
4	2023-03-24	08:52:59	09:36:31	09:36:31:906	132	1	TNT_Think_CSp	fixation	0	5	500	0	0	1	495	1	+	-9	0	0	0	0	0	0
4	2023-03-24	08:52:59	09:36:32	09:36:32:918	132	2	TNT_Think_CSp	Think	0	5	0	0	0	0	1000	1	THINK	-16	0	0	0	0	0	0
4	2023-03-24	08:52:59	09:36:37	09:36:37:936	132	3	TNT_Think_CSp	TNT_Think_CSp	0	5	0	0	0	0	5000	2	Cue25.jpg	-16	0	0	0	0	0	0
