subject	date	time	currenttime	currenttime_plus_ms	blocknum	trialnum	blockcode	trialcode	pretrialpause	posttrialpause	trialduration	trialtimeout	response	correct	latency	stimulusnumber1	stimulusitem1	stimulusonset1	stimulusnumber2	stimulusitem2	stimulusonset2	stimulusnumber3	stimulusitem3	stimulusonset3
5	2023-03-28	08:38:21	08:41:11	08:41:11:016	2	1	Reminder_NoThink_CSm	fixation	0	5	1000	0	0	1	995	1	+	-16	0	0	0	0	0	0
5	2023-03-28	08:38:21	08:41:16	08:41:16:048	2	2	Reminder_NoThink_CSm	NoThink_CSm	0	5	0	0	0	0	5000	1	+	-16	2	Cue21.jpg	-16	2	Target21.jpg	-16
5	2023-03-28	08:38:21	08:41:24	08:41:24:030	2	3	Reminder_NoThink_CSm	valence	0	5	0	0	46	0	7938	1	I found these images to be...	-1	0	0	0	0	0	0
5	2023-03-28	08:38:21	08:41:29	08:41:29:631	2	4	Reminder_NoThink_CSm	expectancy	0	1500	0	0	45	0	5537	1	When you saw the <b>object-scene</b>,   to what <b>degree (0-100%)</b> did you expect the <b>unpleasant sound to occur</b>?	-4	0	0	0	0	0	0
5	2023-03-28	08:38:21	08:41:32	08:41:32:634	3	1	Reminder_Think_CSp	fixation	0	5	1500	0	0	1	1495	1	+	-9	0	0	0	0	0	0
5	2023-03-28	08:38:21	08:41:37	08:41:37:650	3	2	Reminder_Think_CSp	Think_CSp	0	5	0	0	0	0	5000	1	+	-16	3	Cue16.jpg	-16	3	Target16.jpg	-16
5	2023-03-28	08:38:21	08:41:39	08:41:39:481	3	3	Reminder_Think_CSp	valence	0	5	0	0	45	0	1777	1	I found these images to be...	-16	0	0	0	0	0	0
5	2023-03-28	08:38:21	08:41:47	08:41:47:565	3	4	Reminder_Think_CSp	expectancy	0	500	0	0	20	0	8039	1	When you saw the <b>object-scene</b>,   to what <b>degree (0-100%)</b> did you expect the <b>unpleasant sound to occur</b>?	-7	0	0	0	0	0	0
5	2023-03-28	08:38:21	08:41:48	08:41:48:568	4	1	Reminder_NoThink_CSp	fixation	0	5	500	0	0	1	495	1	+	-3	0	0	0	0	0	0
5	2023-03-28	08:38:21	08:41:53	08:41:53:584	4	2	Reminder_NoThink_CSp	NoThink_CSp	0	5	0	0	0	0	5000	1	+	-16	4	Cue5.jpg	-16	4	Target5.jpg	-16
5	2023-03-28	08:38:21	08:41:55	08:41:55:282	4	3	Reminder_NoThink_CSp	valence	0	5	0	0	46	0	1651	1	I found these images to be...	-16	0	0	0	0	0	0
5	2023-03-28	08:38:21	08:41:56	08:41:56:915	4	4	Reminder_NoThink_CSp	expectancy	0	1000	0	0	20	0	1549	1	When you saw the <b>object-scene</b>,   to what <b>degree (0-100%)</b> did you expect the <b>unpleasant sound to occur</b>?	-10	0	0	0	0	0	0
5	2023-03-28	08:38:21	08:41:59	08:41:59:402	5	1	Reminder_NoThink_CSm	fixation	0	5	1500	0	0	1	1495	1	+	-9	0	0	0	0	0	0
5	2023-03-28	08:38:21	08:42:04	08:42:04:418	5	2	Reminder_NoThink_CSm	NoThink_CSm	0	5	0	0	0	0	5000	1	+	-16	3	Cue17.jpg	-16	3	Target17.jpg	-16
5	2023-03-28	08:38:21	08:42:06	08:42:06:232	5	3	Reminder_NoThink_CSm	valence	0	5	0	0	45	0	1761	1	I found these images to be...	-16	0	0	0	0	0	0
5	2023-03-28	08:38:21	08:42:08	08:42:08:416	5	4	Reminder_NoThink_CSm	expectancy	0	1000	0	0	20	0	2143	1	When you saw the <b>object-scene</b>,   to what <b>degree (0-100%)</b> did you expect the <b>unpleasant sound to occur</b>?	-8	0	0	0	0	0	0
5	2023-03-28	08:38:21	08:42:09	08:42:09:914	6	1	Reminder_Baseline_CSp	fixation	0	5	500	0	0	1	495	1	+	-15	0	0	0	0	0	0
5	2023-03-28	08:38:21	08:42:14	08:42:14:933	6	2	Reminder_Baseline_CSp	Baseline_CSp	0	5	0	0	0	0	5000	1	+	-14	6	Cue22.jpg	-14	6	Target22.jpg	-14
5	2023-03-28	08:38:21	08:42:16	08:42:16:850	6	3	Reminder_Baseline_CSp	valence	0	5	0	0	45	0	1898	1	I found these images to be...	-16	0	0	0	0	0	0
5	2023-03-28	08:38:21	08:42:18	08:42:18:333	6	4	Reminder_Baseline_CSp	expectancy	0	1500	0	0	20	0	1446	1	When you saw the <b>object-scene</b>,   to what <b>degree (0-100%)</b> did you expect the <b>unpleasant sound to occur</b>?	-12	0	0	0	0	0	0
5	2023-03-28	08:38:21	08:42:20	08:42:20:833	7	1	PracticeItems_Think	fixation	0	5	1000	0	0	1	995	1	+	-15	0	0	0	0	0	0
5	2023-03-28	08:38:21	08:42:25	08:42:25:850	7	2	PracticeItems_Think	PracticeItems_Think	0	5	0	0	0	0	5000	1	+	-14	1	Cue37.jpg	-14	1	Target37.jpg	-14
5	2023-03-28	08:38:21	08:42:27	08:42:27:834	7	3	PracticeItems_Think	valence	0	5	0	0	44	0	1934	1	I found these images to be...	-16	0	0	0	0	0	0
5	2023-03-28	08:38:21	08:42:29	08:42:29:334	7	4	PracticeItems_Think	expectancy	0	500	0	0	20	0	1454	1	When you saw the <b>object-scene</b>,   to what <b>degree (0-100%)</b> did you expect the <b>unpleasant sound to occur</b>?	-12	0	0	0	0	0	0
5	2023-03-28	08:38:21	08:42:30	08:42:30:833	8	1	Reminder_NoThink_CSp	fixation	0	5	1000	0	0	1	995	1	+	-15	0	0	0	0	0	0
5	2023-03-28	08:38:21	08:42:35	08:42:35:853	8	2	Reminder_NoThink_CSp	NoThink_CSp	0	5	0	0	0	0	5000	1	+	-16	3	Cue25.jpg	-16	3	Target25.jpg	-16
5	2023-03-28	08:38:21	08:42:40	08:42:40:985	8	3	Reminder_NoThink_CSp	valence	0	5	0	0	40	0	5110	1	I found these images to be...	-16	0	0	0	0	0	0
5	2023-03-28	08:38:21	08:42:44	08:42:44:885	8	4	Reminder_NoThink_CSp	expectancy	0	1500	0	0	20	0	3863	1	When you saw the <b>object-scene</b>,   to what <b>degree (0-100%)</b> did you expect the <b>unpleasant sound to occur</b>?	0	0	0	0	0	0	0
5	2023-03-28	08:38:21	08:42:47	08:42:47:884	9	1	Reminder_Think_CSp	fixation	0	5	1500	0	0	1	1495	1	+	-15	0	0	0	0	0	0
5	2023-03-28	08:38:21	08:42:52	08:42:52:902	9	2	Reminder_Think_CSp	Think_CSp	0	5	0	0	0	0	5000	1	+	-16	1	Cue31.jpg	-16	1	Target31.jpg	-16
5	2023-03-28	08:38:21	08:42:56	08:42:56:119	9	3	Reminder_Think_CSp	valence	0	5	0	0	40	0	3186	1	I found these images to be...	-16	0	0	0	0	0	0
5	2023-03-28	08:38:21	08:43:02	08:43:02:469	9	4	Reminder_Think_CSp	expectancy	0	500	0	0	90	0	6305	1	When you saw the <b>object-scene</b>,   to what <b>degree (0-100%)</b> did you expect the <b>unpleasant sound to occur</b>?	-9	0	0	0	0	0	0
5	2023-03-28	08:38:21	08:43:03	08:43:03:468	10	1	Reminder_Baseline_CSp	fixation	0	5	500	0	0	1	495	1	+	-15	0	0	0	0	0	0
5	2023-03-28	08:38:21	08:43:08	08:43:08:486	10	2	Reminder_Baseline_CSp	Baseline_CSp	0	5	0	0	0	0	5000	1	+	-16	4	Cue18.jpg	-16	4	Target18.jpg	-16
5	2023-03-28	08:38:21	08:43:10	08:43:10:569	10	3	Reminder_Baseline_CSp	valence	0	5	0	0	40	0	2050	1	I found these images to be...	-16	0	0	0	0	0	0
5	2023-03-28	08:38:21	08:43:15	08:43:15:403	10	4	Reminder_Baseline_CSp	expectancy	0	1000	0	0	40	0	4798	1	When you saw the <b>object-scene</b>,   to what <b>degree (0-100%)</b> did you expect the <b>unpleasant sound to occur</b>?	-11	0	0	0	0	0	0
5	2023-03-28	08:38:21	08:43:17	08:43:17:903	11	1	Reminder_NoThink_CSm	fixation	0	5	1500	0	0	1	1495	1	+	-15	0	0	0	0	0	0
5	2023-03-28	08:38:21	08:43:22	08:43:22:921	11	2	Reminder_NoThink_CSm	NoThink_CSm	0	5	0	0	0	0	5000	1	+	-16	1	Cue3.jpg	-16	1	Target3.jpg	-16
5	2023-03-28	08:38:21	08:43:24	08:43:24:804	11	3	Reminder_NoThink_CSm	valence	0	5	0	0	45	0	1856	1	I found these images to be...	-16	0	0	0	0	0	0
5	2023-03-28	08:38:21	08:43:26	08:43:26:737	11	4	Reminder_NoThink_CSm	expectancy	0	1500	0	0	80	0	1899	1	When you saw the <b>object-scene</b>,   to what <b>degree (0-100%)</b> did you expect the <b>unpleasant sound to occur</b>?	0	0	0	0	0	0	0
5	2023-03-28	08:38:21	08:43:29	08:43:29:238	12	1	Reminder_Baseline_CSp	fixation	0	5	1000	0	0	1	995	1	+	-10	0	0	0	0	0	0
5	2023-03-28	08:38:21	08:43:34	08:43:34:256	12	2	Reminder_Baseline_CSp	Baseline_CSp	0	5	0	0	0	0	5000	1	+	-16	2	Cue4.jpg	-16	2	Target4.jpg	-16
5	2023-03-28	08:38:21	08:43:37	08:43:37:255	12	3	Reminder_Baseline_CSp	valence	0	5	0	0	45	0	2970	1	I found these images to be...	-16	0	0	0	0	0	0
5	2023-03-28	08:38:21	08:43:41	08:43:41:738	12	4	Reminder_Baseline_CSp	expectancy	0	1000	0	0	70	0	4441	1	When you saw the <b>object-scene</b>,   to what <b>degree (0-100%)</b> did you expect the <b>unpleasant sound to occur</b>?	0	0	0	0	0	0	0
5	2023-03-28	08:38:21	08:43:43	08:43:43:239	13	1	Reminder_Think_CSm	fixation	0	5	500	0	0	1	495	1	+	-9	0	0	0	0	0	0
5	2023-03-28	08:38:21	08:43:48	08:43:48:257	13	2	Reminder_Think_CSm	Think_CSm	0	5	0	0	0	0	5000	1	+	-16	3	Cue33.jpg	-16	3	Target33.jpg	-16
5	2023-03-28	08:38:21	08:43:51	08:43:51:238	13	3	Reminder_Think_CSm	valence	0	5	0	0	46	0	2929	1	I found these images to be...	-16	0	0	0	0	0	0
5	2023-03-28	08:38:21	08:43:58	08:43:58:389	13	4	Reminder_Think_CSm	expectancy	0	500	0	0	50	0	7064	1	When you saw the <b>object-scene</b>,   to what <b>degree (0-100%)</b> did you expect the <b>unpleasant sound to occur</b>?	-9	0	0	0	0	0	0
5	2023-03-28	08:38:21	08:43:59	08:43:59:873	14	1	Reminder_Objects_CSp	fixation	0	5	1000	0	0	1	995	1	+	-10	0	0	0	0	0	0
5	2023-03-28	08:38:21	08:44:04	08:44:04:890	14	2	Reminder_Objects_CSp	Objects_CSp	0	5	0	0	0	0	5000	3	Object6.jpg	-16	0	0	0	0	0	0
5	2023-03-28	08:38:21	08:44:09	08:44:09:039	14	3	Reminder_Objects_CSp	expectancy_object	0	500	0	0	50	0	4095	1	When you saw the <b>object</b>,   to what <b>degree (0-100%)</b> did you expect the <b>unpleasant sound to occur</b>?	-16	0	0	0	0	0	0
5	2023-03-28	08:38:21	08:44:11	08:44:11:025	15	1	Reminder_Baseline_CSp	fixation	0	5	1500	0	0	1	1495	1	+	-9	0	0	0	0	0	0
5	2023-03-28	08:38:21	08:44:16	08:44:16:043	15	2	Reminder_Baseline_CSp	Baseline_CSp	0	5	0	0	0	0	5000	1	+	-16	3	Cue10.jpg	-16	3	Target10.jpg	-16
5	2023-03-28	08:38:21	08:44:17	08:44:17:573	15	3	Reminder_Baseline_CSp	valence	0	5	0	0	46	0	1480	1	I found these images to be...	-16	0	0	0	0	0	0
5	2023-03-28	08:38:21	08:44:20	08:44:20:791	15	4	Reminder_Baseline_CSp	expectancy	0	1500	0	0	60	0	3170	1	When you saw the <b>object-scene</b>,   to what <b>degree (0-100%)</b> did you expect the <b>unpleasant sound to occur</b>?	-7	0	0	0	0	0	0
5	2023-03-28	08:38:21	08:44:22	08:44:22:790	16	1	Reminder_NoThink_CSp	fixation	0	5	500	0	0	1	495	1	+	-15	0	0	0	0	0	0
5	2023-03-28	08:38:21	08:44:27	08:44:27:807	16	2	Reminder_NoThink_CSp	NoThink_CSp	0	5	0	0	0	0	5000	1	+	-16	6	Cue23.jpg	-16	6	Target23.jpg	-16
5	2023-03-28	08:38:21	08:44:29	08:44:29:891	16	3	Reminder_NoThink_CSp	valence	0	5	0	0	50	0	2065	1	I found these images to be...	-16	0	0	0	0	0	0
5	2023-03-28	08:38:21	08:44:31	08:44:31:274	16	4	Reminder_NoThink_CSp	expectancy	0	500	0	0	50	0	1317	1	When you saw the <b>object-scene</b>,   to what <b>degree (0-100%)</b> did you expect the <b>unpleasant sound to occur</b>?	-11	0	0	0	0	0	0
5	2023-03-28	08:38:21	08:44:32	08:44:32:256	17	1	Reminder_NoThink_CSm	fixation	0	5	500	0	0	1	495	1	+	-15	0	0	0	0	0	0
5	2023-03-28	08:38:21	08:44:37	08:44:37:275	17	2	Reminder_NoThink_CSm	NoThink_CSm	0	5	0	0	0	0	5000	1	+	-14	5	Cue29.jpg	-14	5	Target29.jpg	-14
5	2023-03-28	08:38:21	08:44:40	08:44:40:592	17	3	Reminder_NoThink_CSm	valence	0	5	0	0	70	0	3293	1	I found these images to be...	-16	0	0	0	0	0	0
5	2023-03-28	08:38:21	08:44:45	08:44:45:409	17	4	Reminder_NoThink_CSm	expectancy	0	1000	0	0	70	0	4776	1	When you saw the <b>object-scene</b>,   to what <b>degree (0-100%)</b> did you expect the <b>unpleasant sound to occur</b>?	-11	0	0	0	0	0	0
5	2023-03-28	08:38:21	08:44:47	08:44:47:408	18	1	Reminder_Baseline_CSm	fixation	0	5	1000	0	0	1	995	1	+	-15	0	0	0	0	0	0
5	2023-03-28	08:38:21	08:44:52	08:44:52:425	18	2	Reminder_Baseline_CSm	Baseline_CSm	0	5	0	0	0	0	5000	1	+	-16	4	Cue7.jpg	-16	4	Target7.jpg	-16
5	2023-03-28	08:38:21	08:44:55	08:44:55:360	18	3	Reminder_Baseline_CSm	valence	0	5	0	0	45	0	2911	1	I found these images to be...	-16	0	0	0	0	0	0
5	2023-03-28	08:38:21	08:44:58	08:44:58:359	18	4	Reminder_Baseline_CSm	expectancy	0	1500	0	0	70	0	2961	1	When you saw the <b>object-scene</b>,   to what <b>degree (0-100%)</b> did you expect the <b>unpleasant sound to occur</b>?	-11	0	0	0	0	0	0
5	2023-03-28	08:38:21	08:45:01	08:45:01:358	19	1	Reminder_Baseline_CSp	fixation	0	5	1500	0	0	1	1495	1	+	-15	0	0	0	0	0	0
5	2023-03-28	08:38:21	08:45:06	08:45:06:379	19	2	Reminder_Baseline_CSp	Baseline_CSp	0	5	0	0	0	0	5000	1	+	-11	5	Cue35.jpg	-11	5	Target35.jpg	-11
5	2023-03-28	08:38:21	08:45:08	08:45:08:310	19	3	Reminder_Baseline_CSp	valence	0	5	0	0	45	0	1880	1	I found these images to be...	-16	0	0	0	0	0	0
5	2023-03-28	08:38:21	08:45:11	08:45:11:593	19	4	Reminder_Baseline_CSp	expectancy	0	500	0	0	60	0	3218	1	When you saw the <b>object-scene</b>,   to what <b>degree (0-100%)</b> did you expect the <b>unpleasant sound to occur</b>?	-7	0	0	0	0	0	0
5	2023-03-28	08:38:21	08:45:12	08:45:12:580	20	1	Reminder_Think_CSm	fixation	0	5	500	0	0	1	495	1	+	-8	0	0	0	0	0	0
5	2023-03-28	08:38:21	08:45:17	08:45:17:597	20	2	Reminder_Think_CSm	Think_CSm	0	5	0	0	0	0	5000	1	+	-16	1	Cue32.jpg	-16	1	Target32.jpg	-16
5	2023-03-28	08:38:21	08:45:19	08:45:19:445	20	3	Reminder_Think_CSm	valence	0	5	0	0	46	0	1822	1	I found these images to be...	-16	0	0	0	0	0	0
5	2023-03-28	08:38:21	08:45:22	08:45:22:311	20	4	Reminder_Think_CSm	expectancy	0	1000	0	0	40	0	2827	1	When you saw the <b>object-scene</b>,   to what <b>degree (0-100%)</b> did you expect the <b>unpleasant sound to occur</b>?	0	0	0	0	0	0	0
5	2023-03-28	08:38:21	08:45:24	08:45:24:810	21	1	Reminder_Think_CSm	fixation	0	5	1500	0	0	1	1495	1	+	-15	0	0	0	0	0	0
5	2023-03-28	08:38:21	08:45:29	08:45:29:828	21	2	Reminder_Think_CSm	Think_CSm	0	5	0	0	0	0	5000	1	+	-14	2	Cue2.jpg	-14	2	Target2.jpg	-14
5	2023-03-28	08:38:21	08:45:31	08:45:31:862	21	3	Reminder_Think_CSm	valence	0	5	0	0	40	0	2004	1	I found these images to be...	-16	0	0	0	0	0	0
5	2023-03-28	08:38:21	08:45:35	08:45:35:579	21	4	Reminder_Think_CSm	expectancy	0	1500	0	0	53	0	3682	1	When you saw the <b>object-scene</b>,   to what <b>degree (0-100%)</b> did you expect the <b>unpleasant sound to occur</b>?	-12	0	0	0	0	0	0
5	2023-03-28	08:38:21	08:45:38	08:45:38:078	22	1	Reminder_Objects_CSm	fixation	0	5	1000	0	0	1	995	1	+	-15	0	0	0	0	0	0
5	2023-03-28	08:38:21	08:45:43	08:45:43:095	22	2	Reminder_Objects_CSm	Objects_CSm	0	5	0	0	0	0	5000	3	Object7.jpg	-16	0	0	0	0	0	0
5	2023-03-28	08:38:21	08:45:46	08:45:46:463	22	3	Reminder_Objects_CSm	expectancy_object	0	1000	0	0	70	0	3337	1	When you saw the <b>object</b>,   to what <b>degree (0-100%)</b> did you expect the <b>unpleasant sound to occur</b>?	-16	0	0	0	0	0	0
5	2023-03-28	08:38:21	08:45:48	08:45:48:961	23	1	Reminder_Objects_CSp	fixation	0	5	1500	0	0	1	1495	1	+	-14	0	0	0	0	0	0
5	2023-03-28	08:38:21	08:45:53	08:45:53:979	23	2	Reminder_Objects_CSp	Objects_CSp	0	5	0	0	0	0	5000	1	Object3.jpg	-14	0	0	0	0	0	0
5	2023-03-28	08:38:21	08:45:55	08:45:55:880	23	3	Reminder_Objects_CSp	expectancy_object	0	1500	0	0	90	0	1869	1	When you saw the <b>object</b>,   to what <b>degree (0-100%)</b> did you expect the <b>unpleasant sound to occur</b>?	-16	0	0	0	0	0	0
5	2023-03-28	08:38:21	08:45:57	08:45:57:883	24	1	Reminder_Objects_CSm	fixation	0	5	500	0	0	1	495	1	+	-9	0	0	0	0	0	0
5	2023-03-28	08:38:21	08:46:02	08:46:02:899	24	2	Reminder_Objects_CSm	Objects_CSm	0	5	0	0	0	0	5000	2	Object2.jpg	-16	0	0	0	0	0	0
5	2023-03-28	08:38:21	08:46:05	08:46:05:847	24	3	Reminder_Objects_CSm	expectancy_object	0	1000	0	0	100	0	2920	1	When you saw the <b>object</b>,   to what <b>degree (0-100%)</b> did you expect the <b>unpleasant sound to occur</b>?	-16	0	0	0	0	0	0
5	2023-03-28	08:38:21	08:46:07	08:46:07:850	25	1	Reminder_Baseline_CSm	fixation	0	5	1000	0	0	1	995	1	+	-8	0	0	0	0	0	0
5	2023-03-28	08:38:21	08:46:12	08:46:12:867	25	2	Reminder_Baseline_CSm	Baseline_CSm	0	5	0	0	0	0	5000	1	+	-16	3	Cue28.jpg	-16	3	Target28.jpg	-16
5	2023-03-28	08:38:21	08:46:14	08:46:14:764	25	3	Reminder_Baseline_CSm	valence	0	5	0	0	45	0	1872	1	I found these images to be...	-16	0	0	0	0	0	0
5	2023-03-28	08:38:21	08:46:18	08:46:18:798	25	4	Reminder_Baseline_CSm	expectancy	0	1000	0	0	60	0	3988	1	When you saw the <b>object-scene</b>,   to what <b>degree (0-100%)</b> did you expect the <b>unpleasant sound to occur</b>?	0	0	0	0	0	0	0
5	2023-03-28	08:38:21	08:46:20	08:46:20:301	26	1	Reminder_NoThink_CSm	fixation	0	5	500	0	0	1	495	1	+	-8	0	0	0	0	0	0
5	2023-03-28	08:38:21	08:46:25	08:46:25:317	26	2	Reminder_NoThink_CSm	NoThink_CSm	0	5	0	0	0	0	5000	1	+	-16	4	Cue20.jpg	-16	4	Target20.jpg	-16
5	2023-03-28	08:38:21	08:46:27	08:46:27:498	26	3	Reminder_NoThink_CSm	valence	0	5	0	0	47	0	2157	1	I found these images to be...	-16	0	0	0	0	0	0
5	2023-03-28	08:38:21	08:46:29	08:46:29:649	26	4	Reminder_NoThink_CSm	expectancy	0	500	0	0	40	0	2101	1	When you saw the <b>object-scene</b>,   to what <b>degree (0-100%)</b> did you expect the <b>unpleasant sound to occur</b>?	0	0	0	0	0	0	0
5	2023-03-28	08:38:21	08:46:31	08:46:31:148	27	1	Reminder_NoThink_CSp	fixation	0	5	1000	0	0	1	995	1	+	-15	0	0	0	0	0	0
5	2023-03-28	08:38:21	08:46:36	08:46:36:165	27	2	Reminder_NoThink_CSp	NoThink_CSp	0	5	0	0	0	0	5000	1	+	-14	1	Cue12.jpg	-14	1	Target12.jpg	-14
5	2023-03-28	08:38:21	08:46:38	08:46:38:032	27	3	Reminder_NoThink_CSp	valence	0	5	0	0	45	0	1835	1	I found these images to be...	-16	0	0	0	0	0	0
5	2023-03-28	08:38:21	08:46:44	08:46:44:016	27	4	Reminder_NoThink_CSp	expectancy	0	500	0	0	40	0	5934	1	When you saw the <b>object-scene</b>,   to what <b>degree (0-100%)</b> did you expect the <b>unpleasant sound to occur</b>?	-10	0	0	0	0	0	0
5	2023-03-28	08:38:21	08:46:46	08:46:46:014	28	1	Reminder_Think_CSp	fixation	0	5	1500	0	0	1	1495	1	+	-14	0	0	0	0	0	0
5	2023-03-28	08:38:21	08:46:51	08:46:51:033	28	2	Reminder_Think_CSp	Think_CSp	0	5	0	0	0	0	5000	1	+	-13	5	Cue8.jpg	-13	5	Target8.jpg	-13
5	2023-03-28	08:38:21	08:46:52	08:46:52:783	28	3	Reminder_Think_CSp	valence	0	5	0	0	45	0	1719	1	I found these images to be...	-16	0	0	0	0	0	0
5	2023-03-28	08:38:21	08:46:54	08:46:54:717	28	4	Reminder_Think_CSp	expectancy	0	1500	0	0	40	0	1889	1	When you saw the <b>object-scene</b>,   to what <b>degree (0-100%)</b> did you expect the <b>unpleasant sound to occur</b>?	0	0	0	0	0	0	0
5	2023-03-28	08:38:21	08:46:56	08:46:56:716	29	1	Reminder_NoThink_CSp	fixation	0	5	500	0	0	1	495	1	+	-14	0	0	0	0	0	0
5	2023-03-28	08:38:21	08:47:01	08:47:01:734	29	2	Reminder_NoThink_CSp	NoThink_CSp	0	5	0	0	0	0	5000	1	+	-14	2	Cue1.jpg	-14	2	Target1.jpg	-14
5	2023-03-28	08:38:21	08:47:03	08:47:03:450	29	3	Reminder_NoThink_CSp	valence	0	5	0	0	45	0	1690	1	I found these images to be...	-16	0	0	0	0	0	0
5	2023-03-28	08:38:21	08:47:04	08:47:04:867	29	4	Reminder_NoThink_CSp	expectancy	0	1000	0	0	40	0	1349	1	When you saw the <b>object-scene</b>,   to what <b>degree (0-100%)</b> did you expect the <b>unpleasant sound to occur</b>?	-12	0	0	0	0	0	0
5	2023-03-28	08:38:21	08:47:06	08:47:06:850	30	1	Reminder_NoThink_CSm	fixation	0	5	1000	0	0	1	995	1	+	-14	0	0	0	0	0	0
5	2023-03-28	08:38:21	08:47:11	08:47:11:868	30	2	Reminder_NoThink_CSm	NoThink_CSm	0	5	0	0	0	0	5000	1	+	-14	6	Cue15.jpg	-14	6	Target15.jpg	-14
5	2023-03-28	08:38:21	08:47:14	08:47:14:201	30	3	Reminder_NoThink_CSm	valence	0	5	0	0	45	0	2285	1	I found these images to be...	-16	0	0	0	0	0	0
5	2023-03-28	08:38:21	08:47:16	08:47:16:385	30	4	Reminder_NoThink_CSm	expectancy	0	500	0	0	70	0	2142	1	When you saw the <b>object-scene</b>,   to what <b>degree (0-100%)</b> did you expect the <b>unpleasant sound to occur</b>?	-11	0	0	0	0	0	0
5	2023-03-28	08:38:21	08:47:18	08:47:18:384	31	1	Reminder_Objects_CSm	fixation	0	5	1500	0	0	1	1495	1	+	-15	0	0	0	0	0	0
5	2023-03-28	08:38:21	08:47:23	08:47:23:401	31	2	Reminder_Objects_CSm	Objects_CSm	0	5	0	0	0	0	5000	4	Object4.jpg	-16	0	0	0	0	0	0
5	2023-03-28	08:38:21	08:47:25	08:47:25:169	31	3	Reminder_Objects_CSm	expectancy_object	0	1500	0	0	45	0	1735	1	When you saw the <b>object</b>,   to what <b>degree (0-100%)</b> did you expect the <b>unpleasant sound to occur</b>?	-16	0	0	0	0	0	0
5	2023-03-28	08:38:21	08:47:27	08:47:27:167	32	1	Reminder_Think_CSp	fixation	0	5	500	0	0	1	495	1	+	-15	0	0	0	0	0	0
5	2023-03-28	08:38:21	08:47:32	08:47:32:185	32	2	Reminder_Think_CSp	Think_CSp	0	5	0	0	0	0	5000	1	+	-13	6	Cue36.jpg	-13	6	Target36.jpg	-13
5	2023-03-28	08:38:21	08:47:34	08:47:34:419	32	3	Reminder_Think_CSp	valence	0	5	0	0	46	0	2214	1	I found these images to be...	-16	0	0	0	0	0	0
5	2023-03-28	08:38:21	08:47:38	08:47:38:520	32	4	Reminder_Think_CSp	expectancy	0	1000	0	0	40	0	4061	1	When you saw the <b>object-scene</b>,   to what <b>degree (0-100%)</b> did you expect the <b>unpleasant sound to occur</b>?	-10	0	0	0	0	0	0
5	2023-03-28	08:38:21	08:47:41	08:47:41:019	33	1	PracticeItems_Think	fixation	0	5	1500	0	0	1	1495	1	+	-13	0	0	0	0	0	0
5	2023-03-28	08:38:21	08:47:46	08:47:46:039	33	2	PracticeItems_Think	PracticeItems_Think	0	5	0	0	0	0	5000	1	+	-16	2	Cue38.jpg	-16	2	Target38.jpg	-16
5	2023-03-28	08:38:21	08:47:48	08:47:48:03	33	3	PracticeItems_Think	valence	0	5	0	0	45	0	1915	1	I found these images to be...	-16	0	0	0	0	0	0
5	2023-03-28	08:38:21	08:47:49	08:47:49:704	33	4	PracticeItems_Think	expectancy	0	1500	0	0	40	0	1653	1	When you saw the <b>object-scene</b>,   to what <b>degree (0-100%)</b> did you expect the <b>unpleasant sound to occur</b>?	-8	0	0	0	0	0	0
5	2023-03-28	08:38:21	08:47:52	08:47:52:203	34	1	Reminder_Think_CSp	fixation	0	5	1000	0	0	1	995	1	+	-15	0	0	0	0	0	0
5	2023-03-28	08:38:21	08:47:57	08:47:57:220	34	2	Reminder_Think_CSp	Think_CSp	0	5	0	0	0	0	5000	1	+	-16	2	Cue19.jpg	-16	2	Target19.jpg	-16
5	2023-03-28	08:38:21	08:47:58	08:47:58:571	34	3	Reminder_Think_CSp	valence	0	5	0	0	46	0	1332	1	I found these images to be...	-16	0	0	0	0	0	0
5	2023-03-28	08:38:21	08:48:01	08:48:01:037	34	4	Reminder_Think_CSp	expectancy	0	1000	0	0	90	0	2429	1	When you saw the <b>object-scene</b>,   to what <b>degree (0-100%)</b> did you expect the <b>unpleasant sound to occur</b>?	-12	0	0	0	0	0	0
5	2023-03-28	08:38:21	08:48:03	08:48:03:536	35	1	Reminder_Baseline_CSm	fixation	0	5	1500	0	0	1	1495	1	+	-15	0	0	0	0	0	0
5	2023-03-28	08:38:21	08:48:08	08:48:08:554	35	2	Reminder_Baseline_CSm	Baseline_CSm	0	5	0	0	0	0	5000	1	+	-14	5	Cue30.jpg	-14	5	Target30.jpg	-14
5	2023-03-28	08:38:21	08:48:10	08:48:10:638	35	3	Reminder_Baseline_CSm	valence	0	5	0	0	45	0	2062	1	I found these images to be...	-16	0	0	0	0	0	0
5	2023-03-28	08:38:21	08:48:13	08:48:13:038	35	4	Reminder_Baseline_CSm	expectancy	0	500	0	0	80	0	2353	1	When you saw the <b>object-scene</b>,   to what <b>degree (0-100%)</b> did you expect the <b>unpleasant sound to occur</b>?	-12	0	0	0	0	0	0
5	2023-03-28	08:38:21	08:48:14	08:48:14:537	36	1	Reminder_Objects_CSp	fixation	0	5	1000	0	0	1	995	1	+	-15	0	0	0	0	0	0
5	2023-03-28	08:38:21	08:48:19	08:48:19:555	36	2	Reminder_Objects_CSp	Objects_CSp	0	5	0	0	0	0	5000	4	Object8.jpg	-16	0	0	0	0	0	0
5	2023-03-28	08:38:21	08:48:22	08:48:22:072	36	3	Reminder_Objects_CSp	expectancy_object	0	500	0	0	80	0	2493	1	When you saw the <b>object</b>,   to what <b>degree (0-100%)</b> did you expect the <b>unpleasant sound to occur</b>?	-16	0	0	0	0	0	0
5	2023-03-28	08:38:21	08:48:23	08:48:23:071	37	1	PracticeItems_NoThink	fixation	0	5	500	0	0	1	495	1	+	-14	0	0	0	0	0	0
5	2023-03-28	08:38:21	08:48:28	08:48:28:089	37	2	PracticeItems_NoThink	PracticeItems_NoThink	0	5	0	0	0	0	5000	1	+	-16	2	Cue40.jpg	-16	2	Target40.jpg	-16
5	2023-03-28	08:38:21	08:48:30	08:48:30:06	37	3	PracticeItems_NoThink	valence	0	5	0	0	46	0	1887	1	I found these images to be...	-16	0	0	0	0	0	0
5	2023-03-28	08:38:21	08:48:32	08:48:32:222	37	4	PracticeItems_NoThink	expectancy	0	1500	0	0	40	0	2146	1	When you saw the <b>object-scene</b>,   to what <b>degree (0-100%)</b> did you expect the <b>unpleasant sound to occur</b>?	-12	0	0	0	0	0	0
5	2023-03-28	08:38:21	08:48:34	08:48:34:707	38	1	Reminder_Think_CSm	fixation	0	5	1000	0	0	1	995	1	+	-10	0	0	0	0	0	0
5	2023-03-28	08:38:21	08:48:39	08:48:39:725	38	2	Reminder_Think_CSm	Think_CSm	0	5	0	0	0	0	5000	1	+	-16	5	Cue27.jpg	-16	5	Target27.jpg	-16
5	2023-03-28	08:38:21	08:48:42	08:48:42:240	38	3	Reminder_Think_CSm	valence	0	5	0	0	46	0	2486	1	I found these images to be...	-16	0	0	0	0	0	0
5	2023-03-28	08:38:21	08:48:44	08:48:44:840	38	4	Reminder_Think_CSm	expectancy	0	1500	0	0	45	0	2552	1	When you saw the <b>object-scene</b>,   to what <b>degree (0-100%)</b> did you expect the <b>unpleasant sound to occur</b>?	0	0	0	0	0	0	0
5	2023-03-28	08:38:21	08:48:47	08:48:47:843	39	1	Reminder_Objects_CSp	fixation	0	5	1500	0	0	1	1495	1	+	-3	0	0	0	0	0	0
5	2023-03-28	08:38:21	08:48:52	08:48:52:859	39	2	Reminder_Objects_CSp	Objects_CSp	0	5	0	0	0	0	5000	2	Object1.jpg	-16	0	0	0	0	0	0
5	2023-03-28	08:38:21	08:48:55	08:48:55:090	39	3	Reminder_Objects_CSp	expectancy_object	0	1000	0	0	70	0	2183	1	When you saw the <b>object</b>,   to what <b>degree (0-100%)</b> did you expect the <b>unpleasant sound to occur</b>?	-16	0	0	0	0	0	0
5	2023-03-28	08:38:21	08:48:56	08:48:56:576	40	1	Reminder_NoThink_CSp	fixation	0	5	500	0	0	1	495	1	+	-9	0	0	0	0	0	0
5	2023-03-28	08:38:21	08:49:01	08:49:01:593	40	2	Reminder_NoThink_CSp	NoThink_CSp	0	5	0	0	0	0	5000	1	+	-16	5	Cue11.jpg	-16	5	Target11.jpg	-16
5	2023-03-28	08:38:21	08:49:03	08:49:03:658	40	3	Reminder_NoThink_CSp	valence	0	5	0	0	45	0	2041	1	I found these images to be...	-16	0	0	0	0	0	0
5	2023-03-28	08:38:21	08:49:06	08:49:06:258	40	4	Reminder_NoThink_CSp	expectancy	0	500	0	0	45	0	2534	1	When you saw the <b>object-scene</b>,   to what <b>degree (0-100%)</b> did you expect the <b>unpleasant sound to occur</b>?	0	0	0	0	0	0	0
5	2023-03-28	08:38:21	08:49:07	08:49:07:244	41	1	Reminder_Baseline_CSp	fixation	0	5	500	0	0	1	495	1	+	-9	0	0	0	0	0	0
5	2023-03-28	08:38:21	08:49:12	08:49:12:261	41	2	Reminder_Baseline_CSp	Baseline_CSp	0	5	0	0	0	0	5000	1	+	-16	1	Cue26.jpg	-16	1	Target26.jpg	-16
5	2023-03-28	08:38:21	08:49:13	08:49:13:925	41	3	Reminder_Baseline_CSp	valence	0	5	0	0	46	0	1637	1	I found these images to be...	-16	0	0	0	0	0	0
5	2023-03-28	08:38:21	08:49:15	08:49:15:342	41	4	Reminder_Baseline_CSp	expectancy	0	1000	0	0	46	0	1371	1	When you saw the <b>object-scene</b>,   to what <b>degree (0-100%)</b> did you expect the <b>unpleasant sound to occur</b>?	0	0	0	0	0	0	0
5	2023-03-28	08:38:21	08:49:17	08:49:17:345	42	1	Reminder_Baseline_CSm	fixation	0	5	1000	0	0	1	995	1	+	-9	0	0	0	0	0	0
5	2023-03-28	08:38:21	08:49:22	08:49:22:361	42	2	Reminder_Baseline_CSm	Baseline_CSm	0	5	0	0	0	0	5000	1	+	-16	6	Cue6.jpg	-16	6	Target6.jpg	-16
5	2023-03-28	08:38:21	08:49:25	08:49:25:09	42	3	Reminder_Baseline_CSm	valence	0	5	0	0	45	0	2617	1	I found these images to be...	-16	0	0	0	0	0	0
5	2023-03-28	08:38:21	08:49:27	08:49:27:192	42	4	Reminder_Baseline_CSm	expectancy	0	1000	0	0	80	0	2111	1	When you saw the <b>object-scene</b>,   to what <b>degree (0-100%)</b> did you expect the <b>unpleasant sound to occur</b>?	0	0	0	0	0	0	0
5	2023-03-28	08:38:21	08:49:29	08:49:29:679	43	1	Reminder_Baseline_CSm	fixation	0	5	1500	0	0	1	1495	1	+	-8	0	0	0	0	0	0
5	2023-03-28	08:38:21	08:49:34	08:49:34:695	43	2	Reminder_Baseline_CSm	Baseline_CSm	0	5	0	0	0	0	5000	1	+	-16	1	Cue14.jpg	-16	1	Target14.jpg	-16
5	2023-03-28	08:38:21	08:49:36	08:49:36:556	43	3	Reminder_Baseline_CSm	valence	0	5	0	0	46	0	1810	1	I found these images to be...	-16	0	0	0	0	0	0
5	2023-03-28	08:38:21	08:49:40	08:49:40:476	43	4	Reminder_Baseline_CSm	expectancy	0	500	0	0	44	0	3865	1	When you saw the <b>object-scene</b>,   to what <b>degree (0-100%)</b> did you expect the <b>unpleasant sound to occur</b>?	0	0	0	0	0	0	0
5	2023-03-28	08:38:21	08:49:41	08:49:41:463	44	1	Reminder_Think_CSm	fixation	0	5	500	0	0	1	495	1	+	-9	0	0	0	0	0	0
5	2023-03-28	08:38:21	08:49:46	08:49:46:479	44	2	Reminder_Think_CSm	Think_CSm	0	5	0	0	0	0	5000	1	+	-16	4	Cue13.jpg	-16	4	Target13.jpg	-16
5	2023-03-28	08:38:21	08:49:48	08:49:48:327	44	3	Reminder_Think_CSm	valence	0	5	0	0	46	0	1795	1	I found these images to be...	-16	0	0	0	0	0	0
5	2023-03-28	08:38:21	08:49:49	08:49:49:344	44	4	Reminder_Think_CSm	expectancy	0	1500	0	0	45	0	960	1	When you saw the <b>object-scene</b>,   to what <b>degree (0-100%)</b> did you expect the <b>unpleasant sound to occur</b>?	-7	0	0	0	0	0	0
5	2023-03-28	08:38:21	08:49:52	08:49:52:343	45	1	Reminder_Baseline_CSm	fixation	0	5	1500	0	0	1	1495	1	+	-14	0	0	0	0	0	0
5	2023-03-28	08:38:21	08:49:57	08:49:57:361	45	2	Reminder_Baseline_CSm	Baseline_CSm	0	5	0	0	0	0	5000	1	+	-14	2	Cue9.jpg	-14	2	Target9.jpg	-14
5	2023-03-28	08:38:21	08:49:59	08:49:59:011	45	3	Reminder_Baseline_CSm	valence	0	5	0	0	45	0	1623	1	I found these images to be...	-16	0	0	0	0	0	0
5	2023-03-28	08:38:21	08:50:00	08:50:00:561	45	4	Reminder_Baseline_CSm	expectancy	0	500	0	0	60	0	1501	1	When you saw the <b>object-scene</b>,   to what <b>degree (0-100%)</b> did you expect the <b>unpleasant sound to occur</b>?	-11	0	0	0	0	0	0
5	2023-03-28	08:38:21	08:50:02	08:50:02:061	46	1	Reminder_Think_CSp	fixation	0	5	1000	0	0	1	995	1	+	-15	0	0	0	0	0	0
5	2023-03-28	08:38:21	08:50:07	08:50:07:078	46	2	Reminder_Think_CSp	Think_CSp	0	5	0	0	0	0	5000	1	+	-16	4	Cue34.jpg	-16	4	Target34.jpg	-16
5	2023-03-28	08:38:21	08:50:10	08:50:10:129	46	3	Reminder_Think_CSp	valence	0	5	0	0	45	0	3026	1	I found these images to be...	-16	0	0	0	0	0	0
5	2023-03-28	08:38:21	08:50:11	08:50:11:445	46	4	Reminder_Think_CSp	expectancy	0	1500	0	0	56	0	1247	1	When you saw the <b>object-scene</b>,   to what <b>degree (0-100%)</b> did you expect the <b>unpleasant sound to occur</b>?	-12	0	0	0	0	0	0
5	2023-03-28	08:38:21	08:50:13	08:50:13:430	47	1	Reminder_Think_CSm	fixation	0	5	500	0	0	1	495	1	+	-10	0	0	0	0	0	0
5	2023-03-28	08:38:21	08:50:18	08:50:18:448	47	2	Reminder_Think_CSm	Think_CSm	0	5	0	0	0	0	5000	1	+	-16	6	Cue24.jpg	-16	6	Target24.jpg	-16
5	2023-03-28	08:38:21	08:50:20	08:50:20:295	47	3	Reminder_Think_CSm	valence	0	5	0	0	46	0	1794	1	I found these images to be...	-16	0	0	0	0	0	0
5	2023-03-28	08:38:21	08:50:21	08:50:21:529	47	4	Reminder_Think_CSm	expectancy	0	1000	0	0	55	0	1166	1	When you saw the <b>object-scene</b>,   to what <b>degree (0-100%)</b> did you expect the <b>unpleasant sound to occur</b>?	-7	0	0	0	0	0	0
5	2023-03-28	08:38:21	08:50:23	08:50:23:531	48	1	Reminder_Objects_CSm	fixation	0	5	1000	0	0	1	995	1	+	-9	0	0	0	0	0	0
5	2023-03-28	08:38:21	08:50:28	08:50:28:548	48	2	Reminder_Objects_CSm	Objects_CSm	0	5	0	0	0	0	5000	1	Object5.jpg	-16	0	0	0	0	0	0
5	2023-03-28	08:38:21	08:50:30	08:50:30:663	48	3	Reminder_Objects_CSm	expectancy_object	0	1500	0	0	70	0	2062	1	When you saw the <b>object</b>,   to what <b>degree (0-100%)</b> did you expect the <b>unpleasant sound to occur</b>?	-16	0	0	0	0	0	0
5	2023-03-28	08:38:21	08:50:33	08:50:33:649	49	1	PracticeItems_NoThink	fixation	0	5	1500	0	0	1	1495	1	+	-9	0	0	0	0	0	0
5	2023-03-28	08:38:21	08:50:38	08:50:38:666	49	2	PracticeItems_NoThink	PracticeItems_NoThink	0	5	0	0	0	0	5000	1	+	-16	1	Cue39.jpg	-16	1	Target39.jpg	-16
5	2023-03-28	08:38:21	08:50:41	08:50:41:964	49	3	PracticeItems_NoThink	valence	0	5	0	0	90	0	3273	1	I found these images to be...	-16	0	0	0	0	0	0
5	2023-03-28	08:38:21	08:50:48	08:50:48:147	49	4	PracticeItems_NoThink	expectancy	0	500	0	0	80	0	6139	1	When you saw the <b>object-scene</b>,   to what <b>degree (0-100%)</b> did you expect the <b>unpleasant sound to occur</b>?	0	0	0	0	0	0	0
5	2023-03-28	08:38:21	08:56:34	08:56:34:505	2	1	Practice_NoThink	fixation	0	5	500	0	0	1	495	1	+	-8	0	0	0	0	0	0
5	2023-03-28	08:38:21	08:56:35	08:56:35:530	2	2	Practice_NoThink	NoThink	0	5	0	0	0	0	1000	1	DON'T THINK	-9	0	0	0	0	0	0
5	2023-03-28	08:38:21	08:56:40	08:56:40:547	2	3	Practice_NoThink	NoThinkCue	0	5	0	0	0	1	5000	1	Cue39.jpg	-16	0	0	0	0	0	0
5	2023-03-28	08:38:21	08:56:41	08:56:41:477	2	4	Practice_NoThink	Intrusion	0	500	3000	0	80	1	895	1	How <b>often</b> did you <b>think</b> about the <b>scene</b>?   <center><br><b>NEVER (1)    BRIEFLY (2)   OFTEN (3) </b>	-13	0	0	0	0	0	0
5	2023-03-28	08:38:21	08:56:44	08:56:44:550	3	1	Practice_NoThink	fixation	0	5	1000	0	0	1	995	1	+	-8	0	0	0	0	0	0
5	2023-03-28	08:38:21	08:56:45	08:56:45:564	3	2	Practice_NoThink	NoThink	0	5	0	0	0	0	1000	1	DON'T THINK	-16	0	0	0	0	0	0
5	2023-03-28	08:38:21	08:56:50	08:56:50:581	3	3	Practice_NoThink	NoThinkCue	0	5	0	0	0	1	5000	2	Cue40.jpg	-16	0	0	0	0	0	0
5	2023-03-28	08:38:21	08:56:50	08:56:50:157	3	4	Practice_NoThink	Intrusion	0	1000	3000	0	80	1	558	1	How <b>often</b> did you <b>think</b> about the <b>scene</b>?   <center><br><b>NEVER (1)    BRIEFLY (2)   OFTEN (3) </b>	-16	0	0	0	0	0	0
5	2023-03-28	08:38:21	08:56:54	08:56:54:085	4	1	Practice_Think	fixation	0	5	1500	0	0	1	1495	1	+	-9	0	0	0	0	0	0
5	2023-03-28	08:38:21	08:56:55	08:56:55:098	4	2	Practice_Think	Think	0	5	0	0	0	0	1000	1	THINK	-16	0	0	0	0	0	0
5	2023-03-28	08:38:21	08:57:00	08:57:00:115	4	3	Practice_Think	ThinkCue	0	5	0	0	0	1	5000	2	Cue38.jpg	-16	0	0	0	0	0	0
5	2023-03-28	08:38:21	08:57:02	08:57:02:622	4	4	Practice_Think	Intrusion	0	1500	3000	0	0	0	1500	1	How <b>often</b> did you <b>think</b> about the <b>scene</b>?   <center><br><b>NEVER (1)    BRIEFLY (2)   OFTEN (3) </b>	-16	0	0	0	0	0	0
5	2023-03-28	08:38:21	08:57:05	08:57:05:619	5	1	Practice_Think	fixation	0	5	1500	0	0	1	1495	1	+	-9	0	0	0	0	0	0
5	2023-03-28	08:38:21	08:57:06	08:57:06:632	5	2	Practice_Think	Think	0	5	0	0	0	0	1000	1	THINK	-16	0	0	0	0	0	0
5	2023-03-28	08:38:21	08:57:11	08:57:11:649	5	3	Practice_Think	ThinkCue	0	5	0	0	0	1	5000	1	Cue37.jpg	-16	0	0	0	0	0	0
5	2023-03-28	08:38:21	08:57:13	08:57:13:655	5	4	Practice_Think	Intrusion	0	1000	3000	0	0	0	2000	1	How <b>often</b> did you <b>think</b> about the <b>scene</b>?   <center><br><b>NEVER (1)    BRIEFLY (2)   OFTEN (3) </b>	-16	0	0	0	0	0	0
5	2023-03-28	08:38:21	09:02:59	09:02:59:573	6	1	Practice_Betweenblocks1	Practice_Betweenblocks1	0	5	0	0	57	1	344890	1	<center><br><br><br><br>This is the end of the first practice round. <br><br>There will be 2 more practice rounds.  <br><br> Please await further instruction from the experimenter.	-16	0	0	0	0	0	0
5	2023-03-28	08:38:21	09:03:00	09:03:00:576	7	1	Practice_Think	fixation	0	5	1000	0	0	1	995	1	+	-16	0	0	0	0	0	0
5	2023-03-28	08:38:21	09:03:01	09:03:01:586	7	2	Practice_Think	Think	0	5	0	0	0	0	1000	1	THINK	-16	0	0	0	0	0	0
5	2023-03-28	08:38:21	09:03:06	09:03:06:603	7	3	Practice_Think	ThinkCue	0	5	0	0	0	1	5000	2	Cue38.jpg	-16	0	0	0	0	0	0
5	2023-03-28	08:38:21	09:03:07	09:03:07:111	7	4	Practice_Think	Intrusion	0	1500	3000	0	0	0	1500	1	How <b>often</b> did you <b>think</b> about the <b>scene</b>?   <center><br><b>NEVER (1)    BRIEFLY (2)   OFTEN (3) </b>	-16	0	0	0	0	0	0
5	2023-03-28	08:38:21	09:03:09	09:03:09:107	8	1	Practice_NoThink	fixation	0	5	500	0	0	1	495	1	+	-5	0	0	0	0	0	0
5	2023-03-28	08:38:21	09:03:10	09:03:10:121	8	2	Practice_NoThink	NoThink	0	5	0	0	0	0	1000	1	DON'T THINK	-16	0	0	0	0	0	0
5	2023-03-28	08:38:21	09:03:15	09:03:15:137	8	3	Practice_NoThink	NoThinkCue	0	5	0	0	0	1	5000	1	Cue39.jpg	-16	0	0	0	0	0	0
5	2023-03-28	08:38:21	09:03:16	09:03:16:788	8	4	Practice_NoThink	Intrusion	0	500	3000	0	80	1	634	1	How <b>often</b> did you <b>think</b> about the <b>scene</b>?   <center><br><b>NEVER (1)    BRIEFLY (2)   OFTEN (3) </b>	-16	0	0	0	0	0	0
5	2023-03-28	08:38:21	09:03:20	09:03:20:641	9	1	Practice_Think	fixation	0	5	1500	0	0	1	1495	1	+	-16	0	0	0	0	0	0
5	2023-03-28	08:38:21	09:03:21	09:03:21:655	9	2	Practice_Think	Think	0	5	0	0	0	0	1000	1	THINK	-16	0	0	0	0	0	0
5	2023-03-28	08:38:21	09:03:26	09:03:26:671	9	3	Practice_Think	ThinkCue	0	5	0	0	0	1	5000	1	Cue37.jpg	-16	0	0	0	0	0	0
5	2023-03-28	08:38:21	09:03:27	09:03:27:940	9	4	Practice_Think	Intrusion	0	1000	3000	0	79	1	1252	1	How <b>often</b> did you <b>think</b> about the <b>scene</b>?   <center><br><b>NEVER (1)    BRIEFLY (2)   OFTEN (3) </b>	-16	0	0	0	0	0	0
5	2023-03-28	08:38:21	09:03:29	09:03:29:175	10	1	Practice_NoThink	fixation	0	5	500	0	0	1	495	1	+	-9	0	0	0	0	0	0
5	2023-03-28	08:38:21	09:03:30	09:03:30:188	10	2	Practice_NoThink	NoThink	0	5	0	0	0	0	1000	1	DON'T THINK	-16	0	0	0	0	0	0
5	2023-03-28	08:38:21	09:03:35	09:03:35:205	10	3	Practice_NoThink	NoThinkCue	0	5	0	0	0	1	5000	2	Cue40.jpg	-16	0	0	0	0	0	0
5	2023-03-28	08:38:21	09:03:36	09:03:36:044	10	4	Practice_NoThink	Intrusion	0	500	3000	0	80	1	822	1	How <b>often</b> did you <b>think</b> about the <b>scene</b>?   <center><br><b>NEVER (1)    BRIEFLY (2)   OFTEN (3) </b>	-16	0	0	0	0	0	0
5	2023-03-28	08:38:21	09:05:49	09:05:49:084	11	1	Practice_Betweenblocks2	Practice_Betweenblocks2	0	5	0	0	57	1	130828	1	<center><br><br><br><br>This is the end of the second practice round. <br><br>There will be 1 more practice round.  <br><br> Please await further instruction from the experimenter.	-8	0	0	0	0	0	0
5	2023-03-28	08:38:21	09:05:50	09:05:50:086	12	1	Practice_NoThink	fixation	0	5	1000	0	0	1	995	1	+	-16	0	0	0	0	0	0
5	2023-03-28	08:38:21	09:05:51	09:05:51:097	12	2	Practice_NoThink	NoThink	0	5	0	0	0	0	1000	1	DON'T THINK	-16	0	0	0	0	0	0
5	2023-03-28	08:38:21	09:05:56	09:05:56:114	12	3	Practice_NoThink	NoThinkCue	0	5	0	0	0	1	5000	1	Cue39.jpg	-16	0	0	0	0	0	0
5	2023-03-28	08:38:21	09:05:58	09:05:58:621	12	4	Practice_NoThink	Intrusion	0	1500	3000	0	0	0	1500	1	How <b>often</b> did you <b>think</b> about the <b>scene</b>?   <center><br><b>NEVER (1)    BRIEFLY (2)   OFTEN (3) </b>	-16	0	0	0	0	0	0
5	2023-03-28	08:38:21	09:06:00	09:06:00:118	13	1	Practice_NoThink	fixation	0	5	1000	0	0	1	995	1	+	-16	0	0	0	0	0	0
5	2023-03-28	08:38:21	09:06:01	09:06:01:131	13	2	Practice_NoThink	NoThink	0	5	0	0	0	0	1000	1	DON'T THINK	-16	0	0	0	0	0	0
5	2023-03-28	08:38:21	09:06:06	09:06:06:147	13	3	Practice_NoThink	NoThinkCue	0	5	0	0	0	1	5000	2	Cue40.jpg	-16	0	0	0	0	0	0
5	2023-03-28	08:38:21	09:06:08	09:06:08:654	13	4	Practice_NoThink	Intrusion	0	1500	3000	0	0	0	1500	1	How <b>often</b> did you <b>think</b> about the <b>scene</b>?   <center><br><b>NEVER (1)    BRIEFLY (2)   OFTEN (3) </b>	-16	0	0	0	0	0	0
5	2023-03-28	08:38:21	09:06:10	09:06:10:652	14	1	Practice_Think	fixation	0	5	500	0	0	1	495	1	+	-16	0	0	0	0	0	0
5	2023-03-28	08:38:21	09:06:11	09:06:11:664	14	2	Practice_Think	Think	0	5	0	0	0	0	1000	1	THINK	-16	0	0	0	0	0	0
5	2023-03-28	08:38:21	09:06:16	09:06:16:682	14	3	Practice_Think	ThinkCue	0	5	0	0	0	1	5000	2	Cue38.jpg	-16	0	0	0	0	0	0
5	2023-03-28	08:38:21	09:06:18	09:06:18:532	14	4	Practice_Think	Intrusion	0	1000	3000	0	81	1	1834	1	How <b>often</b> did you <b>think</b> about the <b>scene</b>?   <center><br><b>NEVER (1)    BRIEFLY (2)   OFTEN (3) </b>	-16	0	0	0	0	0	0
5	2023-03-28	08:38:21	09:06:20	09:06:20:186	15	1	Practice_Think	fixation	0	5	1500	0	0	1	1495	1	+	-16	0	0	0	0	0	0
5	2023-03-28	08:38:21	09:06:21	09:06:21:198	15	2	Practice_Think	Think	0	5	0	0	0	0	1000	1	THINK	-16	0	0	0	0	0	0
5	2023-03-28	08:38:21	09:06:26	09:06:26:215	15	3	Practice_Think	ThinkCue	0	5	0	0	0	1	5000	1	Cue37.jpg	-16	0	0	0	0	0	0
5	2023-03-28	08:38:21	09:06:27	09:06:27:988	15	4	Practice_Think	Intrusion	0	500	3000	0	79	1	756	1	How <b>often</b> did you <b>think</b> about the <b>scene</b>?   <center><br><b>NEVER (1)    BRIEFLY (2)   OFTEN (3) </b>	-16	0	0	0	0	0	0
5	2023-03-28	08:38:21	09:08:08	09:08:08:502	2	1	TNT_NoThink_CSp	fixation	0	5	500	0	0	1	495	1	+	-8	0	0	0	0	0	0
5	2023-03-28	08:38:21	09:08:09	09:08:09:519	2	2	TNT_NoThink_CSp	NoThink	0	5	0	0	0	0	1000	1	DON'T THINK	-16	0	0	0	0	0	0
5	2023-03-28	08:38:21	09:08:14	09:08:14:535	2	3	TNT_NoThink_CSp	TNT_NoThink_CSp	0	5	0	0	0	0	5000	6	Cue23.jpg	-16	0	0	0	0	0	0
5	2023-03-28	08:38:21	09:08:16	09:08:16:476	2	4	TNT_NoThink_CSp	Intrusion	0	1000	3000	0	79	1	1924	1	How <b>often</b> did you <b>think</b> about the <b>scene</b>?   <center><br><b>NEVER (1)    BRIEFLY (2)   OFTEN (3) </b>	-16	0	0	0	0	0	0
5	2023-03-28	08:38:21	09:08:18	09:08:18:539	3	1	TNT_Think_CSp	fixation	0	5	1000	0	0	1	995	1	+	-9	0	0	0	0	0	0
5	2023-03-28	08:38:21	09:08:19	09:08:19:552	3	2	TNT_Think_CSp	Think	0	5	0	0	0	0	1000	1	THINK	-16	0	0	0	0	0	0
5	2023-03-28	08:38:21	09:08:24	09:08:24:569	3	3	TNT_Think_CSp	TNT_Think_CSp	0	5	0	0	0	0	5000	6	Cue36.jpg	-16	0	0	0	0	0	0
5	2023-03-28	08:38:21	09:08:26	09:08:26:077	3	4	TNT_Think_CSp	Intrusion	0	500	3000	0	0	0	2500	1	How <b>often</b> did you <b>think</b> about the <b>scene</b>?   <center><br><b>NEVER (1)    BRIEFLY (2)   OFTEN (3) </b>	-16	0	0	0	0	0	0
5	2023-03-28	08:38:21	09:08:28	09:08:28:073	4	1	TNT_Object_CSp	fixation	0	5	1500	0	0	1	1495	1	+	-8	0	0	0	0	0	0
5	2023-03-28	08:38:21	09:08:29	09:08:29:086	4	2	TNT_Object_CSp	Passive	0	5	0	0	0	0	1000	1	VIEW	-16	0	0	0	0	0	0
5	2023-03-28	08:38:21	09:08:34	09:08:34:103	4	3	TNT_Object_CSp	TNT_Object_CSp	0	500	0	0	0	0	5000	2	Object1.jpg	-16	0	0	0	0	0	0
5	2023-03-28	08:38:21	09:08:35	09:08:35:102	5	1	TNT_NoThink_CSm	fixation	0	5	500	0	0	1	495	1	+	-8	0	0	0	0	0	0
5	2023-03-28	08:38:21	09:08:36	09:08:36:120	5	2	TNT_NoThink_CSm	NoThink	0	5	0	0	0	0	1000	1	DON'T THINK	-16	0	0	0	0	0	0
5	2023-03-28	08:38:21	09:08:41	09:08:41:137	5	3	TNT_NoThink_CSm	TNT_NoThink_CSm	0	5	0	0	0	0	5000	2	Cue21.jpg	-16	0	0	0	0	0	0
5	2023-03-28	08:38:21	09:08:42	09:08:42:540	5	4	TNT_NoThink_CSm	Intrusion	0	1500	3000	0	80	1	386	1	How <b>often</b> did you <b>think</b> about the <b>scene</b>?   <center><br><b>NEVER (1)    BRIEFLY (2)   OFTEN (3) </b>	-16	0	0	0	0	0	0
5	2023-03-28	08:38:21	09:08:45	09:08:45:141	6	1	TNT_Object_CSp	fixation	0	5	1000	0	0	1	995	1	+	-16	0	0	0	0	0	0
5	2023-03-28	08:38:21	09:08:46	09:08:46:154	6	2	TNT_Object_CSp	Passive	0	5	0	0	0	0	1000	1	VIEW	-16	0	0	0	0	0	0
5	2023-03-28	08:38:21	09:08:51	09:08:51:171	6	3	TNT_Object_CSp	TNT_Object_CSp	0	1000	0	0	0	0	5000	1	Object3.jpg	-16	0	0	0	0	0	0
5	2023-03-28	08:38:21	09:08:54	09:08:54:670	7	1	TNT_Object_CSp	fixation	0	5	1500	0	0	1	1495	1	+	-9	0	0	0	0	0	0
5	2023-03-28	08:38:21	09:08:55	09:08:55:688	7	2	TNT_Object_CSp	Passive	0	5	0	0	0	0	1000	1	VIEW	-16	0	0	0	0	0	0
5	2023-03-28	08:38:21	09:09:00	09:09:00:704	7	3	TNT_Object_CSp	TNT_Object_CSp	0	1500	0	0	0	0	5000	4	Object8.jpg	-16	0	0	0	0	0	0
5	2023-03-28	08:38:21	09:09:02	09:09:02:704	8	1	TNT_NoThink_CSm	fixation	0	5	500	0	0	1	495	1	+	-9	0	0	0	0	0	0
5	2023-03-28	08:38:21	09:09:03	09:09:03:722	8	2	TNT_NoThink_CSm	NoThink	0	5	0	0	0	0	1000	1	DON'T THINK	-16	0	0	0	0	0	0
5	2023-03-28	08:38:21	09:09:08	09:09:08:738	8	3	TNT_NoThink_CSm	TNT_NoThink_CSm	0	5	0	0	0	0	5000	5	Cue29.jpg	-16	0	0	0	0	0	0
5	2023-03-28	08:38:21	09:09:09	09:09:09:308	8	4	TNT_NoThink_CSm	Intrusion	0	500	3000	0	80	1	553	1	How <b>often</b> did you <b>think</b> about the <b>scene</b>?   <center><br><b>NEVER (1)    BRIEFLY (2)   OFTEN (3) </b>	-16	0	0	0	0	0	0
5	2023-03-28	08:38:21	09:09:12	09:09:12:742	9	1	TNT_Object_CSp	fixation	0	5	1000	0	0	1	995	1	+	-16	0	0	0	0	0	0
5	2023-03-28	08:38:21	09:09:13	09:09:13:755	9	2	TNT_Object_CSp	Passive	0	5	0	0	0	0	1000	1	VIEW	-16	0	0	0	0	0	0
5	2023-03-28	08:38:21	09:09:18	09:09:18:772	9	3	TNT_Object_CSp	TNT_Object_CSp	0	1000	0	0	0	0	5000	3	Object6.jpg	-16	0	0	0	0	0	0
5	2023-03-28	08:38:21	09:09:21	09:09:21:272	10	1	TNT_Think_CSm	fixation	0	5	1500	0	0	1	1495	1	+	-9	0	0	0	0	0	0
5	2023-03-28	08:38:21	09:09:22	09:09:22:289	10	2	TNT_Think_CSm	Think	0	5	0	0	0	0	1000	1	THINK	-16	0	0	0	0	0	0
5	2023-03-28	08:38:21	09:09:27	09:09:27:306	10	3	TNT_Think_CSm	TNT_Think_CSm	0	5	0	0	0	0	5000	3	Cue33.jpg	-16	0	0	0	0	0	0
5	2023-03-28	08:38:21	09:09:27	09:09:27:900	10	4	TNT_Think_CSm	Intrusion	0	1000	3000	0	81	1	577	1	How <b>often</b> did you <b>think</b> about the <b>scene</b>?   <center><br><b>NEVER (1)    BRIEFLY (2)   OFTEN (3) </b>	-16	0	0	0	0	0	0
5	2023-03-28	08:38:21	09:09:31	09:09:31:310	11	1	TNT_Think_CSp	fixation	0	5	1000	0	0	1	995	1	+	-16	0	0	0	0	0	0
5	2023-03-28	08:38:21	09:09:32	09:09:32:323	11	2	TNT_Think_CSp	Think	0	5	0	0	0	0	1000	1	THINK	-16	0	0	0	0	0	0
5	2023-03-28	08:38:21	09:09:37	09:09:37:340	11	3	TNT_Think_CSp	TNT_Think_CSp	0	5	0	0	0	0	5000	5	Cue8.jpg	-16	0	0	0	0	0	0
5	2023-03-28	08:38:21	09:09:37	09:09:37:884	11	4	TNT_Think_CSp	Intrusion	0	1500	3000	0	81	1	527	1	How <b>often</b> did you <b>think</b> about the <b>scene</b>?   <center><br><b>NEVER (1)    BRIEFLY (2)   OFTEN (3) </b>	-16	0	0	0	0	0	0
5	2023-03-28	08:38:21	09:09:40	09:09:40:844	12	1	TNT_Think_CSm	fixation	0	5	500	0	0	1	495	1	+	-16	0	0	0	0	0	0
5	2023-03-28	08:38:21	09:09:41	09:09:41:857	12	2	TNT_Think_CSm	Think	0	5	0	0	0	0	1000	1	THINK	-16	0	0	0	0	0	0
5	2023-03-28	08:38:21	09:09:46	09:09:46:874	12	3	TNT_Think_CSm	TNT_Think_CSm	0	5	0	0	0	0	5000	4	Cue13.jpg	-16	0	0	0	0	0	0
5	2023-03-28	08:38:21	09:09:47	09:09:47:980	12	4	TNT_Think_CSm	Intrusion	0	1000	3000	0	79	1	1088	1	How <b>often</b> did you <b>think</b> about the <b>scene</b>?   <center><br><b>NEVER (1)    BRIEFLY (2)   OFTEN (3) </b>	-16	0	0	0	0	0	0
5	2023-03-28	08:38:21	09:09:51	09:09:51:378	13	1	TNT_Object_CSm	fixation	0	5	1500	0	0	1	1495	1	+	-9	0	0	0	0	0	0
5	2023-03-28	08:38:21	09:09:52	09:09:52:391	13	2	TNT_Object_CSm	Passive	0	5	0	0	0	0	1000	1	VIEW	-16	0	0	0	0	0	0
5	2023-03-28	08:38:21	09:09:57	09:09:57:408	13	3	TNT_Object_CSm	TNT_Object_CSm	0	1500	0	0	0	0	5000	3	Object7.jpg	-16	0	0	0	0	0	0
5	2023-03-28	08:38:21	09:09:59	09:09:59:908	14	1	TNT_NoThink_CSm	fixation	0	5	1000	0	0	1	995	1	+	-9	0	0	0	0	0	0
5	2023-03-28	08:38:21	09:10:00	09:10:00:925	14	2	TNT_NoThink_CSm	NoThink	0	5	0	0	0	0	1000	1	DON'T THINK	-16	0	0	0	0	0	0
5	2023-03-28	08:38:21	09:10:05	09:10:05:942	14	3	TNT_NoThink_CSm	TNT_NoThink_CSm	0	5	0	0	0	0	5000	4	Cue20.jpg	-16	0	0	0	0	0	0
5	2023-03-28	08:38:21	09:10:06	09:10:06:364	14	4	TNT_NoThink_CSm	Intrusion	0	500	3000	0	80	1	405	1	How <b>often</b> did you <b>think</b> about the <b>scene</b>?   <center><br><b>NEVER (1)    BRIEFLY (2)   OFTEN (3) </b>	-16	0	0	0	0	0	0
5	2023-03-28	08:38:21	09:10:09	09:10:09:445	15	1	TNT_NoThink_CSp	fixation	0	5	500	0	0	1	495	1	+	-16	0	0	0	0	0	0
5	2023-03-28	08:38:21	09:10:10	09:10:10:459	15	2	TNT_NoThink_CSp	NoThink	0	5	0	0	0	0	1000	1	DON'T THINK	-16	0	0	0	0	0	0
5	2023-03-28	08:38:21	09:10:15	09:10:15:476	15	3	TNT_NoThink_CSp	TNT_NoThink_CSp	0	5	0	0	0	0	5000	4	Cue5.jpg	-16	0	0	0	0	0	0
5	2023-03-28	08:38:21	09:10:16	09:10:16:524	15	4	TNT_NoThink_CSp	Intrusion	0	1500	3000	0	79	1	1031	1	How <b>often</b> did you <b>think</b> about the <b>scene</b>?   <center><br><b>NEVER (1)    BRIEFLY (2)   OFTEN (3) </b>	-16	0	0	0	0	0	0
5	2023-03-28	08:38:21	09:10:19	09:10:19:980	16	1	TNT_NoThink_CSm	fixation	0	5	1500	0	0	1	1495	1	+	-9	0	0	0	0	0	0
5	2023-03-28	08:38:21	09:10:20	09:10:20:993	16	2	TNT_NoThink_CSm	NoThink	0	5	0	0	0	0	1000	1	DON'T THINK	-16	0	0	0	0	0	0
5	2023-03-28	08:38:21	09:10:25	09:10:25:010	16	3	TNT_NoThink_CSm	TNT_NoThink_CSm	0	5	0	0	0	0	5000	3	Cue17.jpg	-16	0	0	0	0	0	0
5	2023-03-28	08:38:21	09:10:26	09:10:26:588	16	4	TNT_NoThink_CSm	Intrusion	0	500	3000	0	79	1	562	1	How <b>often</b> did you <b>think</b> about the <b>scene</b>?   <center><br><b>NEVER (1)    BRIEFLY (2)   OFTEN (3) </b>	-16	0	0	0	0	0	0
5	2023-03-28	08:38:21	09:10:29	09:10:29:014	17	1	TNT_Object_CSm	fixation	0	5	1000	0	0	1	995	1	+	-16	0	0	0	0	0	0
5	2023-03-28	08:38:21	09:10:30	09:10:30:027	17	2	TNT_Object_CSm	Passive	0	5	0	0	0	0	1000	1	VIEW	-16	0	0	0	0	0	0
5	2023-03-28	08:38:21	09:10:35	09:10:35:043	17	3	TNT_Object_CSm	TNT_Object_CSm	0	500	0	0	0	0	5000	4	Object4.jpg	-16	0	0	0	0	0	0
5	2023-03-28	08:38:21	09:10:36	09:10:36:043	18	1	TNT_NoThink_CSp	fixation	0	5	500	0	0	1	495	1	+	-8	0	0	0	0	0	0
5	2023-03-28	08:38:21	09:10:37	09:10:37:061	18	2	TNT_NoThink_CSp	NoThink	0	5	0	0	0	0	1000	1	DON'T THINK	-16	0	0	0	0	0	0
5	2023-03-28	08:38:21	09:10:42	09:10:42:077	18	3	TNT_NoThink_CSp	TNT_NoThink_CSp	0	5	0	0	0	0	5000	5	Cue11.jpg	-16	0	0	0	0	0	0
5	2023-03-28	08:38:21	09:10:44	09:10:44:084	18	4	TNT_NoThink_CSp	Intrusion	0	1000	3000	0	0	0	2000	1	How <b>often</b> did you <b>think</b> about the <b>scene</b>?   <center><br><b>NEVER (1)    BRIEFLY (2)   OFTEN (3) </b>	-16	0	0	0	0	0	0
5	2023-03-28	08:38:21	09:10:47	09:10:47:581	19	1	TNT_Think_CSp	fixation	0	5	1500	0	0	1	1495	1	+	-8	0	0	0	0	0	0
5	2023-03-28	08:38:21	09:10:48	09:10:48:595	19	2	TNT_Think_CSp	Think	0	5	0	0	0	0	1000	1	THINK	-16	0	0	0	0	0	0
5	2023-03-28	08:38:21	09:10:53	09:10:53:611	19	3	TNT_Think_CSp	TNT_Think_CSp	0	5	0	0	0	0	5000	2	Cue19.jpg	-16	0	0	0	0	0	0
5	2023-03-28	08:38:21	09:10:54	09:10:54:119	19	4	TNT_Think_CSp	Intrusion	0	1500	3000	0	0	0	1500	1	How <b>often</b> did you <b>think</b> about the <b>scene</b>?   <center><br><b>NEVER (1)    BRIEFLY (2)   OFTEN (3) </b>	-16	0	0	0	0	0	0
5	2023-03-28	08:38:21	09:10:57	09:10:57:115	20	1	TNT_NoThink_CSp	fixation	0	5	1500	0	0	1	1495	1	+	-9	0	0	0	0	0	0
5	2023-03-28	08:38:21	09:10:58	09:10:58:129	20	2	TNT_NoThink_CSp	NoThink	0	5	0	0	0	0	1000	1	DON'T THINK	-16	0	0	0	0	0	0
5	2023-03-28	08:38:21	09:11:03	09:11:03:145	20	3	TNT_NoThink_CSp	TNT_NoThink_CSp	0	5	0	0	0	0	5000	1	Cue12.jpg	-16	0	0	0	0	0	0
5	2023-03-28	08:38:21	09:11:04	09:11:04:492	20	4	TNT_NoThink_CSp	Intrusion	0	1500	3000	0	81	1	329	1	How <b>often</b> did you <b>think</b> about the <b>scene</b>?   <center><br><b>NEVER (1)    BRIEFLY (2)   OFTEN (3) </b>	-16	0	0	0	0	0	0
5	2023-03-28	08:38:21	09:11:07	09:11:07:649	21	1	TNT_Think_CSm	fixation	0	5	500	0	0	1	495	1	+	-9	0	0	0	0	0	0
5	2023-03-28	08:38:21	09:11:08	09:11:08:663	21	2	TNT_Think_CSm	Think	0	5	0	0	0	0	1000	1	THINK	-16	0	0	0	0	0	0
5	2023-03-28	08:38:21	09:11:13	09:11:13:679	21	3	TNT_Think_CSm	TNT_Think_CSm	0	5	0	0	0	0	5000	5	Cue27.jpg	-16	0	0	0	0	0	0
5	2023-03-28	08:38:21	09:11:15	09:11:15:187	21	4	TNT_Think_CSm	Intrusion	0	500	3000	0	0	0	2500	1	How <b>often</b> did you <b>think</b> about the <b>scene</b>?   <center><br><b>NEVER (1)    BRIEFLY (2)   OFTEN (3) </b>	-16	0	0	0	0	0	0
5	2023-03-28	08:38:21	09:11:17	09:11:17:683	22	1	TNT_Think_CSp	fixation	0	5	1000	0	0	1	995	1	+	-9	0	0	0	0	0	0
5	2023-03-28	08:38:21	09:11:18	09:11:18:696	22	2	TNT_Think_CSp	Think	0	5	0	0	0	0	1000	1	THINK	-16	0	0	0	0	0	0
5	2023-03-28	08:38:21	09:11:23	09:11:23:713	22	3	TNT_Think_CSp	TNT_Think_CSp	0	5	0	0	0	0	5000	3	Cue16.jpg	-16	0	0	0	0	0	0
5	2023-03-28	08:38:21	09:11:25	09:11:25:720	22	4	TNT_Think_CSp	Intrusion	0	1000	3000	0	0	0	2000	1	How <b>often</b> did you <b>think</b> about the <b>scene</b>?   <center><br><b>NEVER (1)    BRIEFLY (2)   OFTEN (3) </b>	-16	0	0	0	0	0	0
5	2023-03-28	08:38:21	09:11:27	09:11:27:717	23	1	TNT_NoThink_CSm	fixation	0	5	1000	0	0	1	995	1	+	-9	0	0	0	0	0	0
5	2023-03-28	08:38:21	09:11:28	09:11:28:731	23	2	TNT_NoThink_CSm	NoThink	0	5	0	0	0	0	1000	1	DON'T THINK	-16	0	0	0	0	0	0
5	2023-03-28	08:38:21	09:11:33	09:11:33:747	23	3	TNT_NoThink_CSm	TNT_NoThink_CSm	0	5	0	0	0	0	5000	6	Cue15.jpg	-16	0	0	0	0	0	0
5	2023-03-28	08:38:21	09:11:34	09:11:34:540	23	4	TNT_NoThink_CSm	Intrusion	0	1000	3000	0	79	1	776	1	How <b>often</b> did you <b>think</b> about the <b>scene</b>?   <center><br><b>NEVER (1)    BRIEFLY (2)   OFTEN (3) </b>	-16	0	0	0	0	0	0
5	2023-03-28	08:38:21	09:11:38	09:11:38:251	24	1	TNT_NoThink_CSm	fixation	0	5	1500	0	0	1	1495	1	+	-9	0	0	0	0	0	0
5	2023-03-28	08:38:21	09:11:39	09:11:39:265	24	2	TNT_NoThink_CSm	NoThink	0	5	0	0	0	0	1000	1	DON'T THINK	-16	0	0	0	0	0	0
5	2023-03-28	08:38:21	09:11:44	09:11:44:281	24	3	TNT_NoThink_CSm	TNT_NoThink_CSm	0	5	0	0	0	0	5000	1	Cue3.jpg	-16	0	0	0	0	0	0
5	2023-03-28	08:38:21	09:11:44	09:11:44:652	24	4	TNT_NoThink_CSm	Intrusion	0	1500	3000	0	80	1	354	1	How <b>often</b> did you <b>think</b> about the <b>scene</b>?   <center><br><b>NEVER (1)    BRIEFLY (2)   OFTEN (3) </b>	-16	0	0	0	0	0	0
5	2023-03-28	08:38:21	09:11:47	09:11:47:785	25	1	TNT_Object_CSm	fixation	0	5	500	0	0	1	495	1	+	-9	0	0	0	0	0	0
5	2023-03-28	08:38:21	09:11:48	09:11:48:798	25	2	TNT_Object_CSm	Passive	0	5	0	0	0	0	1000	1	VIEW	-16	0	0	0	0	0	0
5	2023-03-28	08:38:21	09:11:53	09:11:53:815	25	3	TNT_Object_CSm	TNT_Object_CSm	0	1000	0	0	0	0	5000	1	Object5.jpg	-16	0	0	0	0	0	0
5	2023-03-28	08:38:21	09:11:55	09:11:55:813	26	1	TNT_Think_CSp	fixation	0	5	1000	0	0	1	995	1	+	-9	0	0	0	0	0	0
5	2023-03-28	08:38:21	09:11:56	09:11:56:832	26	2	TNT_Think_CSp	Think	0	5	0	0	0	0	1000	1	THINK	-16	0	0	0	0	0	0
5	2023-03-28	08:38:21	09:12:01	09:12:01:849	26	3	TNT_Think_CSp	TNT_Think_CSp	0	5	0	0	0	0	5000	4	Cue34.jpg	-16	0	0	0	0	0	0
5	2023-03-28	08:38:21	09:12:02	09:12:02:084	26	4	TNT_Think_CSp	Intrusion	0	500	3000	0	81	1	1218	1	How <b>often</b> did you <b>think</b> about the <b>scene</b>?   <center><br><b>NEVER (1)    BRIEFLY (2)   OFTEN (3) </b>	-16	0	0	0	0	0	0
5	2023-03-28	08:38:21	09:12:05	09:12:05:352	27	1	TNT_Think_CSm	fixation	0	5	500	0	0	1	495	1	+	-9	0	0	0	0	0	0
5	2023-03-28	08:38:21	09:12:06	09:12:06:366	27	2	TNT_Think_CSm	Think	0	5	0	0	0	0	1000	1	THINK	-16	0	0	0	0	0	0
5	2023-03-28	08:38:21	09:12:11	09:12:11:383	27	3	TNT_Think_CSm	TNT_Think_CSm	0	5	0	0	0	0	5000	2	Cue2.jpg	-16	0	0	0	0	0	0
5	2023-03-28	08:38:21	09:12:12	09:12:12:020	27	4	TNT_Think_CSm	Intrusion	0	1000	3000	0	80	1	1619	1	How <b>often</b> did you <b>think</b> about the <b>scene</b>?   <center><br><b>NEVER (1)    BRIEFLY (2)   OFTEN (3) </b>	-16	0	0	0	0	0	0
5	2023-03-28	08:38:21	09:12:15	09:12:15:887	28	1	TNT_Think_CSm	fixation	0	5	1500	0	0	1	1495	1	+	-16	0	0	0	0	0	0
5	2023-03-28	08:38:21	09:12:16	09:12:16:900	28	2	TNT_Think_CSm	Think	0	5	0	0	0	0	1000	1	THINK	-16	0	0	0	0	0	0
5	2023-03-28	08:38:21	09:12:21	09:12:21:916	28	3	TNT_Think_CSm	TNT_Think_CSm	0	5	0	0	0	0	5000	6	Cue24.jpg	-16	0	0	0	0	0	0
5	2023-03-28	08:38:21	09:12:22	09:12:22:940	28	4	TNT_Think_CSm	Intrusion	0	500	3000	0	81	1	1005	1	How <b>often</b> did you <b>think</b> about the <b>scene</b>?   <center><br><b>NEVER (1)    BRIEFLY (2)   OFTEN (3) </b>	-16	0	0	0	0	0	0
5	2023-03-28	08:38:21	09:12:25	09:12:25:921	29	1	TNT_NoThink_CSp	fixation	0	5	1000	0	0	1	995	1	+	-16	0	0	0	0	0	0
5	2023-03-28	08:38:21	09:12:26	09:12:26:934	29	2	TNT_NoThink_CSp	NoThink	0	5	0	0	0	0	1000	1	DON'T THINK	-16	0	0	0	0	0	0
5	2023-03-28	08:38:21	09:12:31	09:12:31:950	29	3	TNT_NoThink_CSp	TNT_NoThink_CSp	0	5	0	0	0	0	5000	3	Cue25.jpg	-16	0	0	0	0	0	0
5	2023-03-28	08:38:21	09:12:32	09:12:32:380	29	4	TNT_NoThink_CSp	Intrusion	0	1500	3000	0	79	1	413	1	How <b>often</b> did you <b>think</b> about the <b>scene</b>?   <center><br><b>NEVER (1)    BRIEFLY (2)   OFTEN (3) </b>	-16	0	0	0	0	0	0
5	2023-03-28	08:38:21	09:12:36	09:12:36:454	30	1	TNT_Think_CSp	fixation	0	5	1500	0	0	1	1495	1	+	-9	0	0	0	0	0	0
5	2023-03-28	08:38:21	09:12:37	09:12:37:468	30	2	TNT_Think_CSp	Think	0	5	0	0	0	0	1000	1	THINK	-16	0	0	0	0	0	0
5	2023-03-28	08:38:21	09:12:42	09:12:42:485	30	3	TNT_Think_CSp	TNT_Think_CSp	0	5	0	0	0	0	5000	1	Cue31.jpg	-16	0	0	0	0	0	0
5	2023-03-28	08:38:21	09:12:43	09:12:43:991	30	4	TNT_Think_CSp	Intrusion	0	1500	3000	0	0	0	1500	1	How <b>often</b> did you <b>think</b> about the <b>scene</b>?   <center><br><b>NEVER (1)    BRIEFLY (2)   OFTEN (3) </b>	-16	0	0	0	0	0	0
5	2023-03-28	08:38:21	09:12:45	09:12:45:989	31	1	TNT_Object_CSm	fixation	0	5	500	0	0	1	495	1	+	-16	0	0	0	0	0	0
5	2023-03-28	08:38:21	09:12:46	09:12:46:02	31	2	TNT_Object_CSm	Passive	0	5	0	0	0	0	1000	1	VIEW	-16	0	0	0	0	0	0
5	2023-03-28	08:38:21	09:12:51	09:12:51:018	31	3	TNT_Object_CSm	TNT_Object_CSm	0	500	0	0	0	0	5000	2	Object2.jpg	-16	0	0	0	0	0	0
5	2023-03-28	08:38:21	09:12:53	09:12:53:018	32	1	TNT_Think_CSm	fixation	0	5	1500	0	0	1	1495	1	+	-9	0	0	0	0	0	0
5	2023-03-28	08:38:21	09:12:54	09:12:54:035	32	2	TNT_Think_CSm	Think	0	5	0	0	0	0	1000	1	THINK	-16	0	0	0	0	0	0
5	2023-03-28	08:38:21	09:12:59	09:12:59:052	32	3	TNT_Think_CSm	TNT_Think_CSm	0	5	0	0	0	0	5000	1	Cue32.jpg	-16	0	0	0	0	0	0
5	2023-03-28	08:38:21	09:13:00	09:13:00:164	32	4	TNT_Think_CSm	Intrusion	0	500	3000	0	81	1	1094	1	How <b>often</b> did you <b>think</b> about the <b>scene</b>?   <center><br><b>NEVER (1)    BRIEFLY (2)   OFTEN (3) </b>	-16	0	0	0	0	0	0
5	2023-03-28	08:38:21	09:13:03	09:13:03:556	33	1	TNT_NoThink_CSp	fixation	0	5	500	0	0	1	495	1	+	-9	0	0	0	0	0	0
5	2023-03-28	08:38:21	09:13:04	09:13:04:570	33	2	TNT_NoThink_CSp	NoThink	0	5	0	0	0	0	1000	1	DON'T THINK	-16	0	0	0	0	0	0
5	2023-03-28	08:38:21	09:13:09	09:13:09:586	33	3	TNT_NoThink_CSp	TNT_NoThink_CSp	0	5	0	0	0	0	5000	2	Cue1.jpg	-16	0	0	0	0	0	0
5	2023-03-28	08:38:21	09:13:09	09:13:09:996	33	4	TNT_NoThink_CSp	Intrusion	0	1000	3000	0	79	1	392	1	How <b>often</b> did you <b>think</b> about the <b>scene</b>?   <center><br><b>NEVER (1)    BRIEFLY (2)   OFTEN (3) </b>	-16	0	0	0	0	0	0
5	2023-03-28	08:38:21	09:13:13	09:13:13:590	34	1	TNT_Think_CSp	fixation	0	5	1000	0	0	1	995	1	+	-9	0	0	0	0	0	0
5	2023-03-28	08:38:21	09:13:14	09:13:14:603	34	2	TNT_Think_CSp	Think	0	5	0	0	0	0	1000	1	THINK	-16	0	0	0	0	0	0
5	2023-03-28	08:38:21	09:13:19	09:13:19:620	34	3	TNT_Think_CSp	TNT_Think_CSp	0	5	0	0	0	0	5000	4	Cue34.jpg	-16	0	0	0	0	0	0
5	2023-03-28	08:38:21	09:13:19	09:13:19:108	34	4	TNT_Think_CSp	Intrusion	0	1500	3000	0	81	1	470	1	How <b>often</b> did you <b>think</b> about the <b>scene</b>?   <center><br><b>NEVER (1)    BRIEFLY (2)   OFTEN (3) </b>	-16	0	0	0	0	0	0
5	2023-03-28	08:38:21	09:13:22	09:13:22:124	35	1	TNT_NoThink_CSm	fixation	0	5	500	0	0	1	495	1	+	-9	0	0	0	0	0	0
5	2023-03-28	08:38:21	09:13:23	09:13:23:137	35	2	TNT_NoThink_CSm	NoThink	0	5	0	0	0	0	1000	1	DON'T THINK	-16	0	0	0	0	0	0
5	2023-03-28	08:38:21	09:13:28	09:13:28:154	35	3	TNT_NoThink_CSm	TNT_NoThink_CSm	0	5	0	0	0	0	5000	2	Cue21.jpg	-16	0	0	0	0	0	0
5	2023-03-28	08:38:21	09:13:29	09:13:29:948	35	4	TNT_NoThink_CSm	Intrusion	0	1000	3000	0	79	1	776	1	How <b>often</b> did you <b>think</b> about the <b>scene</b>?   <center><br><b>NEVER (1)    BRIEFLY (2)   OFTEN (3) </b>	-16	0	0	0	0	0	0
5	2023-03-28	08:38:21	09:13:33	09:13:33:658	36	1	TNT_Think_CSp	fixation	0	5	1500	0	0	1	1495	1	+	-9	0	0	0	0	0	0
5	2023-03-28	08:38:21	09:13:34	09:13:34:671	36	2	TNT_Think_CSp	Think	0	5	0	0	0	0	1000	1	THINK	-16	0	0	0	0	0	0
5	2023-03-28	08:38:21	09:13:39	09:13:39:688	36	3	TNT_Think_CSp	TNT_Think_CSp	0	5	0	0	0	0	5000	2	Cue19.jpg	-16	0	0	0	0	0	0
5	2023-03-28	08:38:21	09:13:40	09:13:40:332	36	4	TNT_Think_CSp	Intrusion	0	500	3000	0	81	1	626	1	How <b>often</b> did you <b>think</b> about the <b>scene</b>?   <center><br><b>NEVER (1)    BRIEFLY (2)   OFTEN (3) </b>	-16	0	0	0	0	0	0
5	2023-03-28	08:38:21	09:13:43	09:13:43:691	37	1	TNT_Think_CSp	fixation	0	5	1000	0	0	1	995	1	+	-16	0	0	0	0	0	0
5	2023-03-28	08:38:21	09:13:44	09:13:44:705	37	2	TNT_Think_CSp	Think	0	5	0	0	0	0	1000	1	THINK	-16	0	0	0	0	0	0
5	2023-03-28	08:38:21	09:13:49	09:13:49:722	37	3	TNT_Think_CSp	TNT_Think_CSp	0	5	0	0	0	0	5000	5	Cue8.jpg	-16	0	0	0	0	0	0
5	2023-03-28	08:38:21	09:13:49	09:13:49:900	37	4	TNT_Think_CSp	Intrusion	0	1500	3000	0	81	1	160	1	How <b>often</b> did you <b>think</b> about the <b>scene</b>?   <center><br><b>NEVER (1)    BRIEFLY (2)   OFTEN (3) </b>	-16	0	0	0	0	0	0
5	2023-03-28	08:38:21	09:13:53	09:13:53:226	38	1	TNT_Object_CSm	fixation	0	5	500	0	0	1	495	1	+	-9	0	0	0	0	0	0
5	2023-03-28	08:38:21	09:13:54	09:13:54:239	38	2	TNT_Object_CSm	Passive	0	5	0	0	0	0	1000	1	VIEW	-16	0	0	0	0	0	0
5	2023-03-28	08:38:21	09:13:59	09:13:59:256	38	3	TNT_Object_CSm	TNT_Object_CSm	0	1000	0	0	0	0	5000	3	Object7.jpg	-16	0	0	0	0	0	0
5	2023-03-28	08:38:21	09:14:01	09:14:01:755	39	1	TNT_NoThink_CSp	fixation	0	5	1500	0	0	1	1495	1	+	-9	0	0	0	0	0	0
5	2023-03-28	08:38:21	09:14:02	09:14:02:774	39	2	TNT_NoThink_CSp	NoThink	0	5	0	0	0	0	1000	1	DON'T THINK	-16	0	0	0	0	0	0
5	2023-03-28	08:38:21	09:14:07	09:14:07:790	39	3	TNT_NoThink_CSp	TNT_NoThink_CSp	0	5	0	0	0	0	5000	3	Cue25.jpg	-16	0	0	0	0	0	0
5	2023-03-28	08:38:21	09:14:08	09:14:08:524	39	4	TNT_NoThink_CSp	Intrusion	0	1000	3000	0	79	1	716	1	How <b>often</b> did you <b>think</b> about the <b>scene</b>?   <center><br><b>NEVER (1)    BRIEFLY (2)   OFTEN (3) </b>	-16	0	0	0	0	0	0
5	2023-03-28	08:38:21	09:14:11	09:14:11:794	40	1	TNT_Think_CSm	fixation	0	5	1000	0	0	1	995	1	+	-9	0	0	0	0	0	0
5	2023-03-28	08:38:21	09:14:12	09:14:12:807	40	2	TNT_Think_CSm	Think	0	5	0	0	0	0	1000	1	THINK	-16	0	0	0	0	0	0
5	2023-03-28	08:38:21	09:14:17	09:14:17:824	40	3	TNT_Think_CSm	TNT_Think_CSm	0	5	0	0	0	0	5000	3	Cue33.jpg	-16	0	0	0	0	0	0
5	2023-03-28	08:38:21	09:14:19	09:14:19:172	40	4	TNT_Think_CSm	Intrusion	0	500	3000	0	81	1	2331	1	How <b>often</b> did you <b>think</b> about the <b>scene</b>?   <center><br><b>NEVER (1)    BRIEFLY (2)   OFTEN (3) </b>	-16	0	0	0	0	0	0
5	2023-03-28	08:38:21	09:14:21	09:14:21:828	41	1	TNT_Think_CSm	fixation	0	5	1000	0	0	1	995	1	+	-16	0	0	0	0	0	0
5	2023-03-28	08:38:21	09:14:22	09:14:22:841	41	2	TNT_Think_CSm	Think	0	5	0	0	0	0	1000	1	THINK	-16	0	0	0	0	0	0
5	2023-03-28	08:38:21	09:14:27	09:14:27:858	41	3	TNT_Think_CSm	TNT_Think_CSm	0	5	0	0	0	0	5000	5	Cue27.jpg	-16	0	0	0	0	0	0
5	2023-03-28	08:38:21	09:14:28	09:14:28:068	41	4	TNT_Think_CSm	Intrusion	0	500	3000	0	80	1	1193	1	How <b>often</b> did you <b>think</b> about the <b>scene</b>?   <center><br><b>NEVER (1)    BRIEFLY (2)   OFTEN (3) </b>	-16	0	0	0	0	0	0
5	2023-03-28	08:38:21	09:14:32	09:14:32:362	42	1	TNT_Object_CSp	fixation	0	5	1500	0	0	1	1495	1	+	-16	0	0	0	0	0	0
5	2023-03-28	08:38:21	09:14:33	09:14:33:374	42	2	TNT_Object_CSp	Passive	0	5	0	0	0	0	1000	1	VIEW	-16	0	0	0	0	0	0
5	2023-03-28	08:38:21	09:14:38	09:14:38:392	42	3	TNT_Object_CSp	TNT_Object_CSp	0	1500	0	0	0	0	5000	2	Object1.jpg	-16	0	0	0	0	0	0
5	2023-03-28	08:38:21	09:14:40	09:14:40:391	43	1	TNT_NoThink_CSp	fixation	0	5	500	0	0	1	495	1	+	-9	0	0	0	0	0	0
5	2023-03-28	08:38:21	09:14:41	09:14:41:409	43	2	TNT_NoThink_CSp	NoThink	0	5	0	0	0	0	1000	1	DON'T THINK	-16	0	0	0	0	0	0
5	2023-03-28	08:38:21	09:14:46	09:14:46:425	43	3	TNT_NoThink_CSp	TNT_NoThink_CSp	0	5	0	0	0	0	5000	2	Cue1.jpg	-16	0	0	0	0	0	0
5	2023-03-28	08:38:21	09:14:46	09:14:46:796	43	4	TNT_NoThink_CSp	Intrusion	0	1000	3000	0	79	1	353	1	How <b>often</b> did you <b>think</b> about the <b>scene</b>?   <center><br><b>NEVER (1)    BRIEFLY (2)   OFTEN (3) </b>	-16	0	0	0	0	0	0
5	2023-03-28	08:38:21	09:14:49	09:14:49:930	44	1	TNT_NoThink_CSm	fixation	0	5	500	0	0	1	495	1	+	-16	0	0	0	0	0	0
5	2023-03-28	08:38:21	09:14:50	09:14:50:942	44	2	TNT_NoThink_CSm	NoThink	0	5	0	0	0	0	1000	1	DON'T THINK	-16	0	0	0	0	0	0
5	2023-03-28	08:38:21	09:14:55	09:14:55:960	44	3	TNT_NoThink_CSm	TNT_NoThink_CSm	0	5	0	0	0	0	5000	5	Cue29.jpg	-16	0	0	0	0	0	0
5	2023-03-28	08:38:21	09:14:57	09:14:57:467	44	4	TNT_NoThink_CSm	Intrusion	0	1500	3000	0	0	0	1500	1	How <b>often</b> did you <b>think</b> about the <b>scene</b>?   <center><br><b>NEVER (1)    BRIEFLY (2)   OFTEN (3) </b>	-16	0	0	0	0	0	0
5	2023-03-28	08:38:21	09:15:00	09:15:00:464	45	1	TNT_Think_CSp	fixation	0	5	1500	0	0	1	1495	1	+	-16	0	0	0	0	0	0
5	2023-03-28	08:38:21	09:15:01	09:15:01:476	45	2	TNT_Think_CSp	Think	0	5	0	0	0	0	1000	1	THINK	-16	0	0	0	0	0	0
5	2023-03-28	08:38:21	09:15:06	09:15:06:493	45	3	TNT_Think_CSp	TNT_Think_CSp	0	5	0	0	0	0	5000	6	Cue36.jpg	-16	0	0	0	0	0	0
5	2023-03-28	08:38:21	09:15:06	09:15:06:132	45	4	TNT_Think_CSp	Intrusion	0	500	3000	0	79	1	622	1	How <b>often</b> did you <b>think</b> about the <b>scene</b>?   <center><br><b>NEVER (1)    BRIEFLY (2)   OFTEN (3) </b>	-16	0	0	0	0	0	0
5	2023-03-28	08:38:21	09:15:10	09:15:10:497	46	1	TNT_Think_CSm	fixation	0	5	1000	0	0	1	995	1	+	4	0	0	0	0	0	0
5	2023-03-28	08:38:21	09:15:11	09:15:11:510	46	2	TNT_Think_CSm	Think	0	5	0	0	0	0	1000	1	THINK	-16	0	0	0	0	0	0
5	2023-03-28	08:38:21	09:15:16	09:15:16:527	46	3	TNT_Think_CSm	TNT_Think_CSm	0	5	0	0	0	0	5000	1	Cue32.jpg	-16	0	0	0	0	0	0
5	2023-03-28	08:38:21	09:15:17	09:15:17:804	46	4	TNT_Think_CSm	Intrusion	0	1500	3000	0	81	1	1259	1	How <b>often</b> did you <b>think</b> about the <b>scene</b>?   <center><br><b>NEVER (1)    BRIEFLY (2)   OFTEN (3) </b>	-16	0	0	0	0	0	0
5	2023-03-28	08:38:21	09:15:20	09:15:20:031	47	1	TNT_NoThink_CSp	fixation	0	5	1500	0	0	1	1495	1	+	-8	0	0	0	0	0	0
5	2023-03-28	08:38:21	09:15:21	09:15:21:045	47	2	TNT_NoThink_CSp	NoThink	0	5	0	0	0	0	1000	1	DON'T THINK	-16	0	0	0	0	0	0
5	2023-03-28	08:38:21	09:15:26	09:15:26:061	47	3	TNT_NoThink_CSp	TNT_NoThink_CSp	0	5	0	0	0	0	5000	6	Cue23.jpg	-16	0	0	0	0	0	0
5	2023-03-28	08:38:21	09:15:27	09:15:27:436	47	4	TNT_NoThink_CSp	Intrusion	0	1000	3000	0	79	1	357	1	How <b>often</b> did you <b>think</b> about the <b>scene</b>?   <center><br><b>NEVER (1)    BRIEFLY (2)   OFTEN (3) </b>	-16	0	0	0	0	0	0
5	2023-03-28	08:38:21	09:15:30	09:15:30:065	48	1	TNT_NoThink_CSm	fixation	0	5	1000	0	0	1	995	1	+	-9	0	0	0	0	0	0
5	2023-03-28	08:38:21	09:15:31	09:15:31:078	48	2	TNT_NoThink_CSm	NoThink	0	5	0	0	0	0	1000	1	DON'T THINK	-16	0	0	0	0	0	0
5	2023-03-28	08:38:21	09:15:36	09:15:36:095	48	3	TNT_NoThink_CSm	TNT_NoThink_CSm	0	5	0	0	0	0	5000	1	Cue3.jpg	-16	0	0	0	0	0	0
5	2023-03-28	08:38:21	09:15:38	09:15:38:364	48	4	TNT_NoThink_CSm	Intrusion	0	500	3000	0	79	1	1251	1	How <b>often</b> did you <b>think</b> about the <b>scene</b>?   <center><br><b>NEVER (1)    BRIEFLY (2)   OFTEN (3) </b>	-16	0	0	0	0	0	0
5	2023-03-28	08:38:21	09:15:40	09:15:40:599	49	1	TNT_Think_CSp	fixation	0	5	500	0	0	1	495	1	+	-9	0	0	0	0	0	0
5	2023-03-28	08:38:21	09:15:41	09:15:41:612	49	2	TNT_Think_CSp	Think	0	5	0	0	0	0	1000	1	THINK	-16	0	0	0	0	0	0
5	2023-03-28	08:38:21	09:15:46	09:15:46:629	49	3	TNT_Think_CSp	TNT_Think_CSp	0	5	0	0	0	0	5000	3	Cue16.jpg	-16	0	0	0	0	0	0
5	2023-03-28	08:38:21	09:15:48	09:15:48:636	49	4	TNT_Think_CSp	Intrusion	0	1000	3000	0	0	0	2000	1	How <b>often</b> did you <b>think</b> about the <b>scene</b>?   <center><br><b>NEVER (1)    BRIEFLY (2)   OFTEN (3) </b>	-16	0	0	0	0	0	0
5	2023-03-28	08:38:21	09:15:50	09:15:50:632	50	1	TNT_Object_CSp	fixation	0	5	1000	0	0	1	995	1	+	-8	0	0	0	0	0	0
5	2023-03-28	08:38:21	09:15:51	09:15:51:646	50	2	TNT_Object_CSp	Passive	0	5	0	0	0	0	1000	1	VIEW	-16	0	0	0	0	0	0
5	2023-03-28	08:38:21	09:15:56	09:15:56:663	50	3	TNT_Object_CSp	TNT_Object_CSp	0	500	0	0	0	0	5000	1	Object3.jpg	-16	0	0	0	0	0	0
5	2023-03-28	08:38:21	09:15:57	09:15:57:662	51	1	TNT_Object_CSm	fixation	0	5	500	0	0	1	495	1	+	-9	0	0	0	0	0	0
5	2023-03-28	08:38:21	09:15:58	09:15:58:680	51	2	TNT_Object_CSm	Passive	0	5	0	0	0	0	1000	1	VIEW	-16	0	0	0	0	0	0
5	2023-03-28	08:38:21	09:16:03	09:16:03:697	51	3	TNT_Object_CSm	TNT_Object_CSm	0	1500	0	0	0	0	5000	1	Object5.jpg	-16	0	0	0	0	0	0
5	2023-03-28	08:38:21	09:16:06	09:16:06:696	52	1	TNT_Think_CSm	fixation	0	5	1500	0	0	1	1495	1	+	-9	0	0	0	0	0	0
5	2023-03-28	08:38:21	09:16:07	09:16:07:714	52	2	TNT_Think_CSm	Think	0	5	0	0	0	0	1000	1	THINK	-16	0	0	0	0	0	0
5	2023-03-28	08:38:21	09:16:12	09:16:12:730	52	3	TNT_Think_CSm	TNT_Think_CSm	0	5	0	0	0	0	5000	6	Cue24.jpg	-16	0	0	0	0	0	0
5	2023-03-28	08:38:21	09:16:13	09:16:13:852	52	4	TNT_Think_CSm	Intrusion	0	1500	3000	0	81	1	1104	1	How <b>often</b> did you <b>think</b> about the <b>scene</b>?   <center><br><b>NEVER (1)    BRIEFLY (2)   OFTEN (3) </b>	-16	0	0	0	0	0	0
5	2023-03-28	08:38:21	09:16:17	09:16:17:234	53	1	TNT_NoThink_CSp	fixation	0	5	1500	0	0	1	1495	1	+	-8	0	0	0	0	0	0
5	2023-03-28	08:38:21	09:16:18	09:16:18:248	53	2	TNT_NoThink_CSp	NoThink	0	5	0	0	0	0	1000	1	DON'T THINK	-16	0	0	0	0	0	0
5	2023-03-28	08:38:21	09:16:23	09:16:23:265	53	3	TNT_NoThink_CSp	TNT_NoThink_CSp	0	5	0	0	0	0	5000	4	Cue5.jpg	-16	0	0	0	0	0	0
5	2023-03-28	08:38:21	09:16:23	09:16:23:124	53	4	TNT_NoThink_CSp	Intrusion	0	500	3000	0	79	1	842	1	How <b>often</b> did you <b>think</b> about the <b>scene</b>?   <center><br><b>NEVER (1)    BRIEFLY (2)   OFTEN (3) </b>	-16	0	0	0	0	0	0
5	2023-03-28	08:38:21	09:16:26	09:16:26:769	54	1	TNT_Object_CSp	fixation	0	5	500	0	0	1	495	1	+	-16	0	0	0	0	0	0
5	2023-03-28	08:38:21	09:16:27	09:16:27:782	54	2	TNT_Object_CSp	Passive	0	5	0	0	0	0	1000	1	VIEW	-16	0	0	0	0	0	0
5	2023-03-28	08:38:21	09:16:32	09:16:32:798	54	3	TNT_Object_CSp	TNT_Object_CSp	0	1500	0	0	0	0	5000	3	Object6.jpg	-16	0	0	0	0	0	0
5	2023-03-28	08:38:21	09:16:35	09:16:35:298	55	1	TNT_Think_CSm	fixation	0	5	1000	0	0	1	995	1	+	-2	0	0	0	0	0	0
5	2023-03-28	08:38:21	09:16:36	09:16:36:315	55	2	TNT_Think_CSm	Think	0	5	0	0	0	0	1000	1	THINK	-16	0	0	0	0	0	0
5	2023-03-28	08:38:21	09:16:41	09:16:41:332	55	3	TNT_Think_CSm	TNT_Think_CSm	0	5	0	0	0	0	5000	4	Cue13.jpg	-16	0	0	0	0	0	0
5	2023-03-28	08:38:21	09:16:42	09:16:42:348	55	4	TNT_Think_CSm	Intrusion	0	1500	3000	0	79	1	998	1	How <b>often</b> did you <b>think</b> about the <b>scene</b>?   <center><br><b>NEVER (1)    BRIEFLY (2)   OFTEN (3) </b>	-16	0	0	0	0	0	0
5	2023-03-28	08:38:21	09:16:45	09:16:45:836	56	1	TNT_Object_CSm	fixation	0	5	1500	0	0	1	1495	1	+	-9	0	0	0	0	0	0
5	2023-03-28	08:38:21	09:16:46	09:16:46:849	56	2	TNT_Object_CSm	Passive	0	5	0	0	0	0	1000	1	VIEW	-16	0	0	0	0	0	0
5	2023-03-28	08:38:21	09:16:51	09:16:51:866	56	3	TNT_Object_CSm	TNT_Object_CSm	0	500	0	0	0	0	5000	4	Object4.jpg	-16	0	0	0	0	0	0
5	2023-03-28	08:38:21	09:16:53	09:16:53:366	57	1	TNT_Think_CSm	fixation	0	5	1000	0	0	1	995	1	+	-8	0	0	0	0	0	0
5	2023-03-28	08:38:21	09:16:54	09:16:54:383	57	2	TNT_Think_CSm	Think	0	5	0	0	0	0	1000	1	THINK	-16	0	0	0	0	0	0
5	2023-03-28	08:38:21	09:16:59	09:16:59:400	57	3	TNT_Think_CSm	TNT_Think_CSm	0	5	0	0	0	0	5000	2	Cue2.jpg	-16	0	0	0	0	0	0
5	2023-03-28	08:38:21	09:17:01	09:17:01:408	57	4	TNT_Think_CSm	Intrusion	0	1000	3000	0	0	0	2000	1	How <b>often</b> did you <b>think</b> about the <b>scene</b>?   <center><br><b>NEVER (1)    BRIEFLY (2)   OFTEN (3) </b>	-16	0	0	0	0	0	0
5	2023-03-28	08:38:21	09:17:02	09:17:02:903	58	1	TNT_NoThink_CSm	fixation	0	5	500	0	0	1	495	1	+	-8	0	0	0	0	0	0
5	2023-03-28	08:38:21	09:17:03	09:17:03:917	58	2	TNT_NoThink_CSm	NoThink	0	5	0	0	0	0	1000	1	DON'T THINK	-16	0	0	0	0	0	0
5	2023-03-28	08:38:21	09:17:08	09:17:08:934	58	3	TNT_NoThink_CSm	TNT_NoThink_CSm	0	5	0	0	0	0	5000	3	Cue17.jpg	-16	0	0	0	0	0	0
5	2023-03-28	08:38:21	09:17:09	09:17:09:692	58	4	TNT_NoThink_CSm	Intrusion	0	1000	3000	0	79	1	740	1	How <b>often</b> did you <b>think</b> about the <b>scene</b>?   <center><br><b>NEVER (1)    BRIEFLY (2)   OFTEN (3) </b>	-16	0	0	0	0	0	0
5	2023-03-28	08:38:21	09:17:13	09:17:13:438	59	1	TNT_Object_CSp	fixation	0	5	1500	0	0	1	1495	1	+	-8	0	0	0	0	0	0
5	2023-03-28	08:38:21	09:17:14	09:17:14:451	59	2	TNT_Object_CSp	Passive	0	5	0	0	0	0	1000	1	VIEW	-16	0	0	0	0	0	0
5	2023-03-28	08:38:21	09:17:19	09:17:19:468	59	3	TNT_Object_CSp	TNT_Object_CSp	0	1000	0	0	0	0	5000	4	Object8.jpg	-16	0	0	0	0	0	0
5	2023-03-28	08:38:21	09:17:21	09:17:21:468	60	1	TNT_NoThink_CSm	fixation	0	5	1000	0	0	1	995	1	+	-9	0	0	0	0	0	0
5	2023-03-28	08:38:21	09:17:22	09:17:22:485	60	2	TNT_NoThink_CSm	NoThink	0	5	0	0	0	0	1000	1	DON'T THINK	-16	0	0	0	0	0	0
5	2023-03-28	08:38:21	09:17:27	09:17:27:502	60	3	TNT_NoThink_CSm	TNT_NoThink_CSm	0	5	0	0	0	0	5000	4	Cue20.jpg	-16	0	0	0	0	0	0
5	2023-03-28	08:38:21	09:17:27	09:17:27:980	60	4	TNT_NoThink_CSm	Intrusion	0	1500	3000	0	80	1	460	1	How <b>often</b> did you <b>think</b> about the <b>scene</b>?   <center><br><b>NEVER (1)    BRIEFLY (2)   OFTEN (3) </b>	-16	0	0	0	0	0	0
5	2023-03-28	08:38:21	09:17:30	09:17:30:06	61	1	TNT_NoThink_CSp	fixation	0	5	500	0	0	1	495	1	+	-9	0	0	0	0	0	0
5	2023-03-28	08:38:21	09:17:31	09:17:31:019	61	2	TNT_NoThink_CSp	NoThink	0	5	0	0	0	0	1000	1	DON'T THINK	-16	0	0	0	0	0	0
5	2023-03-28	08:38:21	09:17:36	09:17:36:035	61	3	TNT_NoThink_CSp	TNT_NoThink_CSp	0	5	0	0	0	0	5000	5	Cue11.jpg	-16	0	0	0	0	0	0
5	2023-03-28	08:38:21	09:17:37	09:17:37:548	61	4	TNT_NoThink_CSp	Intrusion	0	500	3000	0	80	1	495	1	How <b>often</b> did you <b>think</b> about the <b>scene</b>?   <center><br><b>NEVER (1)    BRIEFLY (2)   OFTEN (3) </b>	-16	0	0	0	0	0	0
5	2023-03-28	08:38:21	09:17:41	09:17:41:539	62	1	TNT_NoThink_CSm	fixation	0	5	1500	0	0	1	1495	1	+	-9	0	0	0	0	0	0
5	2023-03-28	08:38:21	09:17:42	09:17:42:553	62	2	TNT_NoThink_CSm	NoThink	0	5	0	0	0	0	1000	1	DON'T THINK	-16	0	0	0	0	0	0
5	2023-03-28	08:38:21	09:17:47	09:17:47:569	62	3	TNT_NoThink_CSm	TNT_NoThink_CSm	0	5	0	0	0	0	5000	6	Cue15.jpg	-16	0	0	0	0	0	0
5	2023-03-28	08:38:21	09:17:47	09:17:47:012	62	4	TNT_NoThink_CSm	Intrusion	0	500	3000	0	79	1	425	1	How <b>often</b> did you <b>think</b> about the <b>scene</b>?   <center><br><b>NEVER (1)    BRIEFLY (2)   OFTEN (3) </b>	-16	0	0	0	0	0	0
5	2023-03-28	08:38:21	09:17:50	09:17:50:073	63	1	TNT_Think_CSp	fixation	0	5	500	0	0	1	495	1	+	-8	0	0	0	0	0	0
5	2023-03-28	08:38:21	09:17:51	09:17:51:086	63	2	TNT_Think_CSp	Think	0	5	0	0	0	0	1000	1	THINK	-16	0	0	0	0	0	0
5	2023-03-28	08:38:21	09:17:56	09:17:56:103	63	3	TNT_Think_CSp	TNT_Think_CSp	0	5	0	0	0	0	5000	1	Cue31.jpg	-16	0	0	0	0	0	0
5	2023-03-28	08:38:21	09:17:58	09:17:58:364	63	4	TNT_Think_CSp	Intrusion	0	1500	3000	0	80	1	1243	1	How <b>often</b> did you <b>think</b> about the <b>scene</b>?   <center><br><b>NEVER (1)    BRIEFLY (2)   OFTEN (3) </b>	-16	0	0	0	0	0	0
5	2023-03-28	08:38:21	09:18:00	09:18:00:108	64	1	TNT_Object_CSm	fixation	0	5	1000	0	0	1	995	1	+	-16	0	0	0	0	0	0
5	2023-03-28	08:38:21	09:18:01	09:18:01:121	64	2	TNT_Object_CSm	Passive	0	5	0	0	0	0	1000	1	VIEW	-16	0	0	0	0	0	0
5	2023-03-28	08:38:21	09:18:06	09:18:06:137	64	3	TNT_Object_CSm	TNT_Object_CSm	0	1500	0	0	0	0	5000	2	Object2.jpg	-16	0	0	0	0	0	0
5	2023-03-28	08:38:21	09:18:09	09:18:09:137	65	1	TNT_NoThink_CSp	fixation	0	5	1500	0	0	1	1495	1	+	-9	0	0	0	0	0	0
5	2023-03-28	08:38:21	09:18:10	09:18:10:154	65	2	TNT_NoThink_CSp	NoThink	0	5	0	0	0	0	1000	1	DON'T THINK	-16	0	0	0	0	0	0
5	2023-03-28	08:38:21	09:18:15	09:18:15:171	65	3	TNT_NoThink_CSp	TNT_NoThink_CSp	0	5	0	0	0	0	5000	1	Cue12.jpg	-16	0	0	0	0	0	0
5	2023-03-28	08:38:21	09:18:16	09:18:16:764	65	4	TNT_NoThink_CSp	Intrusion	0	1000	3000	0	81	1	575	1	How <b>often</b> did you <b>think</b> about the <b>scene</b>?   <center><br><b>NEVER (1)    BRIEFLY (2)   OFTEN (3) </b>	-16	0	0	0	0	0	0
5	2023-03-28	08:38:21	09:18:19	09:18:19:675	66	1	Expectancy_rating	fixation	0	5	500	0	0	1	495	1	+	-8	0	0	0	0	0	0
5	2023-03-28	08:38:21	09:18:32	09:18:32:421	66	2	Expectancy_rating	expectancy_rating	0	1500	0	0	44	0	12724	1	When you saw the <b>object</b>,   to what <b>degree (0-100%)</b> did you expect the <b>unpleasant sound to occur</b>?	-16	24	Cue24.jpg	-16	0	0	0
5	2023-03-28	08:38:21	09:18:34	09:18:34:924	67	1	Expectancy_rating	fixation	0	5	1000	0	0	1	995	1	+	-9	0	0	0	0	0	0
5	2023-03-28	08:38:21	09:18:38	09:18:38:421	67	2	Expectancy_rating	expectancy_rating	0	1000	0	0	45	0	3449	1	When you saw the <b>object</b>,   to what <b>degree (0-100%)</b> did you expect the <b>unpleasant sound to occur</b>?	-16	5	Cue5.jpg	-16	0	0	0
5	2023-03-28	08:38:21	09:18:40	09:18:40:906	68	1	Expectancy_rating	fixation	0	5	1500	0	0	1	1495	1	+	-9	0	0	0	0	0	0
5	2023-03-28	08:38:21	09:18:46	09:18:46:455	68	2	Expectancy_rating	expectancy_rating	0	500	0	0	30	0	5497	1	When you saw the <b>object</b>,   to what <b>degree (0-100%)</b> did you expect the <b>unpleasant sound to occur</b>?	-16	32	Cue32.jpg	-16	0	0	0
5	2023-03-28	08:38:21	09:18:47	09:18:47:441	69	1	Expectancy_rating	fixation	0	5	500	0	0	1	495	1	+	-9	0	0	0	0	0	0
5	2023-03-28	08:38:21	09:18:49	09:18:49:122	69	2	Expectancy_rating	expectancy_rating	0	500	0	0	30	0	2651	1	When you saw the <b>object</b>,   to what <b>degree (0-100%)</b> did you expect the <b>unpleasant sound to occur</b>?	-16	25	Cue25.jpg	-16	0	0	0
5	2023-03-28	08:38:21	09:18:51	09:18:51:625	70	1	Expectancy_rating	fixation	0	5	1000	0	0	1	995	1	+	-9	0	0	0	0	0	0
5	2023-03-28	08:38:21	09:18:56	09:18:56:588	70	2	Expectancy_rating	expectancy_rating	0	1000	0	0	60	0	4940	1	When you saw the <b>object</b>,   to what <b>degree (0-100%)</b> did you expect the <b>unpleasant sound to occur</b>?	-16	35	Cue35.jpg	-16	0	0	0
5	2023-03-28	08:38:21	09:18:57	09:18:57:091	71	1	Expectancy_rating	fixation	0	5	500	0	0	1	495	1	+	-9	0	0	0	0	0	0
5	2023-03-28	08:38:21	09:19:01	09:19:01:705	71	2	Expectancy_rating	expectancy_rating	0	1500	0	0	60	0	3593	1	When you saw the <b>object</b>,   to what <b>degree (0-100%)</b> did you expect the <b>unpleasant sound to occur</b>?	-16	19	Cue19.jpg	-16	0	0	0
5	2023-03-28	08:38:21	09:19:04	09:19:04:708	72	1	Expectancy_rating	fixation	0	5	1500	0	0	1	1495	1	+	-8	0	0	0	0	0	0
5	2023-03-28	08:38:21	09:19:07	09:19:07:989	72	2	Expectancy_rating	expectancy_rating	0	500	0	0	40	0	3256	1	When you saw the <b>object</b>,   to what <b>degree (0-100%)</b> did you expect the <b>unpleasant sound to occur</b>?	-16	47	Object7.jpg	-16	0	0	0
5	2023-03-28	08:38:21	09:19:09	09:19:09:492	73	1	Expectancy_rating	fixation	0	5	1000	0	0	1	995	1	+	-9	0	0	0	0	0	0
5	2023-03-28	08:38:21	09:19:13	09:19:13:373	73	2	Expectancy_rating	expectancy_rating	0	1500	0	0	30	0	3832	1	When you saw the <b>object</b>,   to what <b>degree (0-100%)</b> did you expect the <b>unpleasant sound to occur</b>?	-16	28	Cue28.jpg	-16	0	0	0
5	2023-03-28	08:38:21	09:19:15	09:19:15:859	74	1	Expectancy_rating	fixation	0	5	1000	0	0	1	995	1	+	-9	0	0	0	0	0	0
5	2023-03-28	08:38:21	09:19:18	09:19:18:057	74	2	Expectancy_rating	expectancy_rating	0	1000	0	0	30	0	3169	1	When you saw the <b>object</b>,   to what <b>degree (0-100%)</b> did you expect the <b>unpleasant sound to occur</b>?	-16	34	Cue34.jpg	-16	0	0	0
5	2023-03-28	08:38:21	09:19:20	09:19:20:559	75	1	Expectancy_rating	fixation	0	5	500	0	0	1	495	1	+	-9	0	0	0	0	0	0
5	2023-03-28	08:38:21	09:19:26	09:19:26:358	75	2	Expectancy_rating	expectancy_rating	0	1000	0	0	40	0	5773	1	When you saw the <b>object</b>,   to what <b>degree (0-100%)</b> did you expect the <b>unpleasant sound to occur</b>?	-16	18	Cue18.jpg	-16	0	0	0
5	2023-03-28	08:38:21	09:19:28	09:19:28:860	76	1	Expectancy_rating	fixation	0	5	1500	0	0	1	1495	1	+	-8	0	0	0	0	0	0
5	2023-03-28	08:38:21	09:19:32	09:19:32:957	76	2	Expectancy_rating	expectancy_rating	0	500	0	0	40	0	4072	1	When you saw the <b>object</b>,   to what <b>degree (0-100%)</b> did you expect the <b>unpleasant sound to occur</b>?	-16	44	Object4.jpg	-16	0	0	0
5	2023-03-28	08:38:21	09:19:34	09:19:34:960	77	1	Expectancy_rating	fixation	0	5	1500	0	0	1	1495	1	+	-7	0	0	0	0	0	0
5	2023-03-28	08:38:21	09:19:38	09:19:38:592	77	2	Expectancy_rating	expectancy_rating	0	1500	0	0	40	0	3604	1	When you saw the <b>object</b>,   to what <b>degree (0-100%)</b> did you expect the <b>unpleasant sound to occur</b>?	-16	16	Cue16.jpg	-16	0	0	0
5	2023-03-28	08:38:21	09:19:40	09:19:40:594	78	1	Expectancy_rating	fixation	0	5	500	0	0	1	495	1	+	-8	0	0	0	0	0	0
5	2023-03-28	08:38:21	09:19:42	09:19:42:658	78	2	Expectancy_rating	expectancy_rating	0	1000	0	0	40	0	2034	1	When you saw the <b>object</b>,   to what <b>degree (0-100%)</b> did you expect the <b>unpleasant sound to occur</b>?	-16	13	Cue13.jpg	-16	0	0	0
5	2023-03-28	08:38:21	09:19:44	09:19:44:660	79	1	Expectancy_rating	fixation	0	5	1000	0	0	1	995	1	+	-9	0	0	0	0	0	0
5	2023-03-28	08:38:21	09:19:50	09:19:50:325	79	2	Expectancy_rating	expectancy_rating	0	1500	0	0	60	0	5615	1	When you saw the <b>object</b>,   to what <b>degree (0-100%)</b> did you expect the <b>unpleasant sound to occur</b>?	-16	29	Cue29.jpg	-16	0	0	0
5	2023-03-28	08:38:21	09:19:52	09:19:52:311	80	1	Expectancy_rating	fixation	0	5	500	0	0	1	495	1	+	-9	0	0	0	0	0	0
5	2023-03-28	08:38:21	09:19:55	09:19:55:642	80	2	Expectancy_rating	expectancy_rating	0	500	0	0	40	0	3277	1	When you saw the <b>object</b>,   to what <b>degree (0-100%)</b> did you expect the <b>unpleasant sound to occur</b>?	-16	7	Cue7.jpg	-16	0	0	0
5	2023-03-28	08:38:21	09:19:57	09:19:57:628	81	1	Expectancy_rating	fixation	0	5	1500	0	0	1	1495	1	+	-9	0	0	0	0	0	0
5	2023-03-28	08:38:21	09:20:02	09:20:02:293	81	2	Expectancy_rating	expectancy_rating	0	1500	0	0	80	0	4640	1	When you saw the <b>object</b>,   to what <b>degree (0-100%)</b> did you expect the <b>unpleasant sound to occur</b>?	-16	42	Object2.jpg	-16	0	0	0
5	2023-03-28	08:38:21	09:20:04	09:20:04:795	82	1	Expectancy_rating	fixation	0	5	1000	0	0	1	995	1	+	-8	0	0	0	0	0	0
5	2023-03-28	08:38:21	09:20:09	09:20:09:327	82	2	Expectancy_rating	expectancy_rating	0	1000	0	0	100	0	4505	1	When you saw the <b>object</b>,   to what <b>degree (0-100%)</b> did you expect the <b>unpleasant sound to occur</b>?	-16	39	Cue39.jpg	-16	0	0	0
5	2023-03-28	08:38:21	09:20:11	09:20:11:828	83	1	Expectancy_rating	fixation	0	5	1500	0	0	1	1495	1	+	-8	0	0	0	0	0	0
5	2023-03-28	08:38:21	09:20:18	09:20:18:293	83	2	Expectancy_rating	expectancy_rating	0	500	0	0	40	0	6415	1	When you saw the <b>object</b>,   to what <b>degree (0-100%)</b> did you expect the <b>unpleasant sound to occur</b>?	-16	23	Cue23.jpg	-16	0	0	0
5	2023-03-28	08:38:21	09:20:19	09:20:19:279	84	1	Expectancy_rating	fixation	0	5	500	0	0	1	495	1	+	-9	0	0	0	0	0	0
5	2023-03-28	08:38:21	09:20:22	09:20:22:694	84	2	Expectancy_rating	expectancy_rating	0	500	0	0	40	0	3365	1	When you saw the <b>object</b>,   to what <b>degree (0-100%)</b> did you expect the <b>unpleasant sound to occur</b>?	-16	12	Cue12.jpg	-16	0	0	0
5	2023-03-28	08:38:21	09:20:23	09:20:23:180	85	1	Expectancy_rating	fixation	0	5	1000	0	0	1	995	1	+	-8	0	0	0	0	0	0
5	2023-03-28	08:38:21	09:20:29	09:20:29:311	85	2	Expectancy_rating	expectancy_rating	0	1500	0	0	40	0	5104	1	When you saw the <b>object</b>,   to what <b>degree (0-100%)</b> did you expect the <b>unpleasant sound to occur</b>?	-16	3	Cue3.jpg	-16	0	0	0
5	2023-03-28	08:38:21	09:20:32	09:20:32:314	86	1	Expectancy_rating	fixation	0	5	1500	0	0	1	1495	1	+	-9	0	0	0	0	0	0
5	2023-03-28	08:38:21	09:20:34	09:20:34:311	86	2	Expectancy_rating	expectancy_rating	0	1000	0	0	40	0	1970	1	When you saw the <b>object</b>,   to what <b>degree (0-100%)</b> did you expect the <b>unpleasant sound to occur</b>?	-16	11	Cue11.jpg	-16	0	0	0
5	2023-03-28	08:38:21	09:20:35	09:20:35:813	87	1	Expectancy_rating	fixation	0	5	500	0	0	1	495	1	+	-8	0	0	0	0	0	0
5	2023-03-28	08:38:21	09:20:39	09:20:39:912	87	2	Expectancy_rating	expectancy_rating	0	500	0	0	40	0	4070	1	When you saw the <b>object</b>,   to what <b>degree (0-100%)</b> did you expect the <b>unpleasant sound to occur</b>?	-16	27	Cue27.jpg	-16	0	0	0
5	2023-03-28	08:38:21	09:20:41	09:20:41:414	88	1	Expectancy_rating	fixation	0	5	1000	0	0	1	995	1	+	-9	0	0	0	0	0	0
5	2023-03-28	08:38:21	09:20:45	09:20:45:045	88	2	Expectancy_rating	expectancy_rating	0	1000	0	0	40	0	4606	1	When you saw the <b>object</b>,   to what <b>degree (0-100%)</b> did you expect the <b>unpleasant sound to occur</b>?	-16	45	Object5.jpg	-16	0	0	0
5	2023-03-28	08:38:21	09:20:47	09:20:47:547	89	1	Expectancy_rating	fixation	0	5	500	0	0	1	495	1	+	-9	0	0	0	0	0	0
5	2023-03-28	08:38:21	09:20:51	09:20:51:745	89	2	Expectancy_rating	expectancy_rating	0	1500	0	0	90	0	4144	1	When you saw the <b>object</b>,   to what <b>degree (0-100%)</b> did you expect the <b>unpleasant sound to occur</b>?	-16	43	Object3.jpg	-16	0	0	0
5	2023-03-28	08:38:21	09:20:54	09:20:54:732	90	1	Expectancy_rating	fixation	0	5	1500	0	0	1	1495	1	+	-9	0	0	0	0	0	0
5	2023-03-28	08:38:21	09:20:57	09:20:57:212	90	2	Expectancy_rating	expectancy_rating	0	1500	0	0	90	0	3456	1	When you saw the <b>object</b>,   to what <b>degree (0-100%)</b> did you expect the <b>unpleasant sound to occur</b>?	-16	10	Cue10.jpg	-16	0	0	0
5	2023-03-28	08:38:21	09:21:00	09:21:00:715	91	1	Expectancy_rating	fixation	0	5	1000	0	0	1	995	1	+	-9	0	0	0	0	0	0
5	2023-03-28	08:38:21	09:21:05	09:21:05:880	91	2	Expectancy_rating	expectancy_rating	0	1000	0	0	30	0	5136	1	When you saw the <b>object</b>,   to what <b>degree (0-100%)</b> did you expect the <b>unpleasant sound to occur</b>?	-16	38	Cue38.jpg	-16	0	0	0
5	2023-03-28	08:38:21	09:21:08	09:21:08:383	92	1	Expectancy_rating	fixation	0	5	1500	0	0	1	1495	1	+	-9	0	0	0	0	0	0
5	2023-03-28	08:38:21	09:21:10	09:21:10:963	92	2	Expectancy_rating	expectancy_rating	0	500	0	0	40	0	2557	1	When you saw the <b>object</b>,   to what <b>degree (0-100%)</b> did you expect the <b>unpleasant sound to occur</b>?	-16	33	Cue33.jpg	-16	0	0	0
5	2023-03-28	08:38:21	09:21:11	09:21:11:966	93	1	Expectancy_rating	fixation	0	5	500	0	0	1	495	1	+	-9	0	0	0	0	0	0
5	2023-03-28	08:38:21	09:21:14	09:21:14:746	93	2	Expectancy_rating	expectancy_rating	0	1500	0	0	60	0	2726	1	When you saw the <b>object</b>,   to what <b>degree (0-100%)</b> did you expect the <b>unpleasant sound to occur</b>?	-16	9	Cue9.jpg	-16	0	0	0
5	2023-03-28	08:38:21	09:21:17	09:21:17:232	94	1	Expectancy_rating	fixation	0	5	1000	0	0	1	995	1	+	-8	0	0	0	0	0	0
5	2023-03-28	08:38:21	09:21:21	09:21:21:513	94	2	Expectancy_rating	expectancy_rating	0	500	0	0	40	0	4227	1	When you saw the <b>object</b>,   to what <b>degree (0-100%)</b> did you expect the <b>unpleasant sound to occur</b>?	-16	48	Object8.jpg	-16	0	0	0
5	2023-03-28	08:38:21	09:21:23	09:21:23:499	95	1	Expectancy_rating	fixation	0	5	1500	0	0	1	1495	1	+	-8	0	0	0	0	0	0
5	2023-03-28	08:38:21	09:21:29	09:21:29:714	95	2	Expectancy_rating	expectancy_rating	0	1000	0	0	40	0	6168	1	When you saw the <b>object</b>,   to what <b>degree (0-100%)</b> did you expect the <b>unpleasant sound to occur</b>?	-16	40	Cue40.jpg	-16	0	0	0
5	2023-03-28	08:38:21	09:21:31	09:21:31:701	96	1	Expectancy_rating	fixation	0	5	1000	0	0	1	995	1	+	-8	0	0	0	0	0	0
5	2023-03-28	08:38:21	09:21:36	09:21:36:515	96	2	Expectancy_rating	expectancy_rating	0	1000	0	0	70	0	4792	1	When you saw the <b>object</b>,   to what <b>degree (0-100%)</b> did you expect the <b>unpleasant sound to occur</b>?	-16	26	Cue26.jpg	-16	0	0	0
5	2023-03-28	08:38:21	09:21:37	09:21:37:018	97	1	Expectancy_rating	fixation	0	5	500	0	0	1	495	1	+	-8	0	0	0	0	0	0
5	2023-03-28	08:38:21	09:21:40	09:21:40:232	97	2	Expectancy_rating	expectancy_rating	0	500	0	0	60	0	3186	1	When you saw the <b>object</b>,   to what <b>degree (0-100%)</b> did you expect the <b>unpleasant sound to occur</b>?	-16	22	Cue22.jpg	-16	0	0	0
5	2023-03-28	08:38:21	09:21:42	09:21:42:735	98	1	Expectancy_rating	fixation	0	5	1000	0	0	1	995	1	+	-9	0	0	0	0	0	0
5	2023-03-28	08:38:21	09:21:49	09:21:49:465	98	2	Expectancy_rating	expectancy_rating	0	1500	0	0	40	0	6701	1	When you saw the <b>object</b>,   to what <b>degree (0-100%)</b> did you expect the <b>unpleasant sound to occur</b>?	-16	17	Cue17.jpg	-16	0	0	0
5	2023-03-28	08:38:21	09:21:51	09:21:51:468	99	1	Expectancy_rating	fixation	0	5	500	0	0	1	495	1	+	-9	0	0	0	0	0	0
5	2023-03-28	08:38:21	09:21:56	09:21:56:066	99	2	Expectancy_rating	expectancy_rating	0	500	0	0	30	0	5576	1	When you saw the <b>object</b>,   to what <b>degree (0-100%)</b> did you expect the <b>unpleasant sound to occur</b>?	-16	21	Cue21.jpg	-16	0	0	0
5	2023-03-28	08:38:21	09:21:58	09:21:58:069	100	1	Expectancy_rating	fixation	0	5	1500	0	0	1	1495	1	+	-8	0	0	0	0	0	0
5	2023-03-28	08:38:21	09:22:02	09:22:02:150	100	2	Expectancy_rating	expectancy_rating	0	1000	0	0	45	0	4031	1	When you saw the <b>object</b>,   to what <b>degree (0-100%)</b> did you expect the <b>unpleasant sound to occur</b>?	-16	36	Cue36.jpg	-16	0	0	0
5	2023-03-28	08:38:21	09:22:04	09:22:04:136	101	1	Expectancy_rating	fixation	0	5	1000	0	0	1	995	1	+	-8	0	0	0	0	0	0
5	2023-03-28	08:38:21	09:22:10	09:22:10:333	101	2	Expectancy_rating	expectancy_rating	0	1500	0	0	60	0	5172	1	When you saw the <b>object</b>,   to what <b>degree (0-100%)</b> did you expect the <b>unpleasant sound to occur</b>?	-16	30	Cue30.jpg	-16	0	0	0
5	2023-03-28	08:38:21	09:22:13	09:22:13:336	102	1	Expectancy_rating	fixation	0	5	1500	0	0	1	1495	1	+	-8	0	0	0	0	0	0
5	2023-03-28	08:38:21	09:22:22	09:22:22:851	102	2	Expectancy_rating	expectancy_rating	0	1500	0	0	40	0	9460	1	When you saw the <b>object</b>,   to what <b>degree (0-100%)</b> did you expect the <b>unpleasant sound to occur</b>?	-16	15	Cue15.jpg	-16	0	0	0
5	2023-03-28	08:38:21	09:22:24	09:22:24:837	103	1	Expectancy_rating	fixation	0	5	500	0	0	1	495	1	+	-8	0	0	0	0	0	0
5	2023-03-28	08:38:21	09:22:27	09:22:27:551	103	2	Expectancy_rating	expectancy_rating	0	1000	0	0	39	0	2687	1	When you saw the <b>object</b>,   to what <b>degree (0-100%)</b> did you expect the <b>unpleasant sound to occur</b>?	-16	41	Object1.jpg	-16	0	0	0
5	2023-03-28	08:38:21	09:22:29	09:22:29:052	104	1	Expectancy_rating	fixation	0	5	1500	0	0	1	1495	1	+	-8	0	0	0	0	0	0
5	2023-03-28	08:38:21	09:22:39	09:22:39:452	104	2	Expectancy_rating	expectancy_rating	0	500	0	0	40	0	9350	1	When you saw the <b>object</b>,   to what <b>degree (0-100%)</b> did you expect the <b>unpleasant sound to occur</b>?	-16	4	Cue4.jpg	-16	0	0	0
5	2023-03-28	08:38:21	09:22:40	09:22:40:937	105	1	Expectancy_rating	fixation	0	5	1000	0	0	1	995	1	+	-8	0	0	0	0	0	0
5	2023-03-28	08:38:21	09:22:43	09:22:43:636	105	2	Expectancy_rating	expectancy_rating	0	1000	0	0	30	0	2674	1	When you saw the <b>object</b>,   to what <b>degree (0-100%)</b> did you expect the <b>unpleasant sound to occur</b>?	-16	1	Cue1.jpg	-16	0	0	0
5	2023-03-28	08:38:21	09:22:44	09:22:44:138	106	1	Expectancy_rating	fixation	0	5	500	0	0	1	495	1	+	-9	0	0	0	0	0	0
5	2023-03-28	08:38:21	09:22:47	09:22:47:669	106	2	Expectancy_rating	expectancy_rating	0	500	0	0	40	0	2506	1	When you saw the <b>object</b>,   to what <b>degree (0-100%)</b> did you expect the <b>unpleasant sound to occur</b>?	-16	46	Object6.jpg	-16	0	0	0
5	2023-03-28	08:38:21	09:22:49	09:22:49:672	107	1	Expectancy_rating	fixation	0	5	1500	0	0	1	1495	1	+	-8	0	0	0	0	0	0
5	2023-03-28	08:38:21	09:22:54	09:22:54:569	107	2	Expectancy_rating	expectancy_rating	0	1500	0	0	100	0	4868	1	When you saw the <b>object</b>,   to what <b>degree (0-100%)</b> did you expect the <b>unpleasant sound to occur</b>?	-16	31	Cue31.jpg	-16	0	0	0
5	2023-03-28	08:38:21	09:22:56	09:22:56:572	108	1	Expectancy_rating	fixation	0	5	500	0	0	1	495	1	+	-8	0	0	0	0	0	0
5	2023-03-28	08:38:21	09:22:59	09:22:59:353	108	2	Expectancy_rating	expectancy_rating	0	500	0	0	60	0	2728	1	When you saw the <b>object</b>,   to what <b>degree (0-100%)</b> did you expect the <b>unpleasant sound to occur</b>?	-16	14	Cue14.jpg	-16	0	0	0
5	2023-03-28	08:38:21	09:23:00	09:23:00:839	109	1	Expectancy_rating	fixation	0	5	1000	0	0	1	995	1	+	-9	0	0	0	0	0	0
5	2023-03-28	08:38:21	09:23:05	09:23:05:503	109	2	Expectancy_rating	expectancy_rating	0	1500	0	0	40	0	4613	1	When you saw the <b>object</b>,   to what <b>degree (0-100%)</b> did you expect the <b>unpleasant sound to occur</b>?	-16	6	Cue6.jpg	-16	0	0	0
5	2023-03-28	08:38:21	09:23:07	09:23:07:490	110	1	Expectancy_rating	fixation	0	5	500	0	0	1	495	1	+	-9	0	0	0	0	0	0
5	2023-03-28	08:38:21	09:23:11	09:23:11:420	110	2	Expectancy_rating	expectancy_rating	0	1000	0	0	60	0	3882	1	When you saw the <b>object</b>,   to what <b>degree (0-100%)</b> did you expect the <b>unpleasant sound to occur</b>?	-16	8	Cue8.jpg	-16	0	0	0
5	2023-03-28	08:38:21	09:23:13	09:23:13:906	111	1	Expectancy_rating	fixation	0	5	1500	0	0	1	1495	1	+	-8	0	0	0	0	0	0
5	2023-03-28	08:38:21	09:23:21	09:23:21:388	111	2	Expectancy_rating	expectancy_rating	0	1500	0	0	60	0	7433	1	When you saw the <b>object</b>,   to what <b>degree (0-100%)</b> did you expect the <b>unpleasant sound to occur</b>?	-16	2	Cue2.jpg	-16	0	0	0
5	2023-03-28	08:38:21	09:23:23	09:23:23:874	112	1	Expectancy_rating	fixation	0	5	1000	0	0	1	995	1	+	-8	0	0	0	0	0	0
5	2023-03-28	08:38:21	09:23:26	09:23:26:038	112	2	Expectancy_rating	expectancy_rating	0	1000	0	0	45	0	3138	1	When you saw the <b>object</b>,   to what <b>degree (0-100%)</b> did you expect the <b>unpleasant sound to occur</b>?	-16	37	Cue37.jpg	-16	0	0	0
5	2023-03-28	08:38:21	09:23:28	09:23:28:041	113	1	Expectancy_rating	fixation	0	5	1000	0	0	1	995	1	+	-9	0	0	0	0	0	0
5	2023-03-28	08:38:21	09:23:40	09:23:40:789	113	2	Expectancy_rating	expectancy_rating	0	500	0	0	44	0	11699	1	When you saw the <b>object</b>,   to what <b>degree (0-100%)</b> did you expect the <b>unpleasant sound to occur</b>?	-16	20	Cue20.jpg	-16	0	0	0
5	2023-03-28	08:38:21	09:23:56	09:23:56:325	114	1	continue_TNT	continue_TNT	0	5	0	0	0	0	15000	1	<center> <br><br><br> We will now continue with the next block of the attention task.   <br><br><br><center>Keep your fingers balanced on the <b>1, 2 and 3 </b>on the keyboard throughout the task   <br><br>to give the rating how well you were <b>able to think</b> or <b>not think</b> (1 = NEVER, 2 = BRIEFLY, 3 = OFTEN).  <br><br><br><br> <b>Press</b> the <b>button</b> on the <b>watch</b> for 1 second before you start!	-16	0	0	0	0	0	0
5	2023-03-28	08:38:21	09:23:56	09:23:56:826	115	1	TNT_Object_CSp	fixation	0	5	500	0	0	1	495	1	+	3	0	0	0	0	0	0
5	2023-03-28	08:38:21	09:23:57	09:23:57:842	115	2	TNT_Object_CSp	Passive	0	5	0	0	0	0	1000	1	VIEW	-16	0	0	0	0	0	0
5	2023-03-28	08:38:21	09:24:02	09:24:02:859	115	3	TNT_Object_CSp	TNT_Object_CSp	0	500	0	0	0	0	5000	3	Object6.jpg	-16	0	0	0	0	0	0
5	2023-03-28	08:38:21	09:24:04	09:24:04:858	116	1	TNT_NoThink_CSm	fixation	0	5	1500	0	0	1	1495	1	+	-9	0	0	0	0	0	0
5	2023-03-28	08:38:21	09:24:05	09:24:05:876	116	2	TNT_NoThink_CSm	NoThink	0	5	0	0	0	0	1000	1	DON'T THINK	-16	0	0	0	0	0	0
5	2023-03-28	08:38:21	09:24:10	09:24:10:892	116	3	TNT_NoThink_CSm	TNT_NoThink_CSm	0	5	0	0	0	0	5000	5	Cue29.jpg	-16	0	0	0	0	0	0
5	2023-03-28	08:38:21	09:24:12	09:24:12:400	116	4	TNT_NoThink_CSm	Intrusion	0	1500	3000	0	0	0	1500	1	How <b>often</b> did you <b>think</b> about the <b>scene</b>?   <center><br><b>NEVER (1)    BRIEFLY (2)   OFTEN (3) </b>	-16	0	0	0	0	0	0
5	2023-03-28	08:38:21	09:24:14	09:24:14:396	117	1	TNT_Think_CSm	fixation	0	5	500	0	0	1	495	1	+	-9	0	0	0	0	0	0
5	2023-03-28	08:38:21	09:24:15	09:24:15:409	117	2	TNT_Think_CSm	Think	0	5	0	0	0	0	1000	1	THINK	-16	0	0	0	0	0	0
5	2023-03-28	08:38:21	09:24:20	09:24:20:426	117	3	TNT_Think_CSm	TNT_Think_CSm	0	5	0	0	0	0	5000	5	Cue27.jpg	-16	0	0	0	0	0	0
5	2023-03-28	08:38:21	09:24:21	09:24:21:204	117	4	TNT_Think_CSm	Intrusion	0	1000	3000	0	80	1	1760	1	How <b>often</b> did you <b>think</b> about the <b>scene</b>?   <center><br><b>NEVER (1)    BRIEFLY (2)   OFTEN (3) </b>	-16	0	0	0	0	0	0
5	2023-03-28	08:38:21	09:24:24	09:24:24:430	118	1	TNT_NoThink_CSp	fixation	0	5	1000	0	0	1	995	1	+	-6	0	0	0	0	0	0
5	2023-03-28	08:38:21	09:24:25	09:24:25:444	118	2	TNT_NoThink_CSp	NoThink	0	5	0	0	0	0	1000	1	DON'T THINK	-16	0	0	0	0	0	0
5	2023-03-28	08:38:21	09:24:30	09:24:30:460	118	3	TNT_NoThink_CSp	TNT_NoThink_CSp	0	5	0	0	0	0	5000	5	Cue11.jpg	-16	0	0	0	0	0	0
5	2023-03-28	08:38:21	09:24:31	09:24:31:468	118	4	TNT_NoThink_CSp	Intrusion	0	500	3000	0	80	1	990	1	How <b>often</b> did you <b>think</b> about the <b>scene</b>?   <center><br><b>NEVER (1)    BRIEFLY (2)   OFTEN (3) </b>	-16	0	0	0	0	0	0
5	2023-03-28	08:38:21	09:24:34	09:24:34:964	119	1	TNT_Object_CSp	fixation	0	5	1500	0	0	1	1495	1	+	-9	0	0	0	0	0	0
5	2023-03-28	08:38:21	09:24:35	09:24:35:978	119	2	TNT_Object_CSp	Passive	0	5	0	0	0	0	1000	1	VIEW	-16	0	0	0	0	0	0
5	2023-03-28	08:38:21	09:24:40	09:24:40:994	119	3	TNT_Object_CSp	TNT_Object_CSp	0	500	0	0	0	0	5000	4	Object8.jpg	-16	0	0	0	0	0	0
5	2023-03-28	08:38:21	09:24:41	09:24:41:994	120	1	TNT_Object_CSm	fixation	0	5	500	0	0	1	495	1	+	-9	0	0	0	0	0	0
5	2023-03-28	08:38:21	09:24:42	09:24:42:011	120	2	TNT_Object_CSm	Passive	0	5	0	0	0	0	1000	1	VIEW	-16	0	0	0	0	0	0
5	2023-03-28	08:38:21	09:24:47	09:24:47:028	120	3	TNT_Object_CSm	TNT_Object_CSm	0	1000	0	0	0	0	5000	1	Object5.jpg	-16	0	0	0	0	0	0
5	2023-03-28	08:38:21	09:24:49	09:24:49:028	121	1	TNT_Think_CSp	fixation	0	5	1000	0	0	1	995	1	+	-9	0	0	0	0	0	0
5	2023-03-28	08:38:21	09:24:50	09:24:50:045	121	2	TNT_Think_CSp	Think	0	5	0	0	0	0	1000	1	THINK	-16	0	0	0	0	0	0
5	2023-03-28	08:38:21	09:24:55	09:24:55:062	121	3	TNT_Think_CSp	TNT_Think_CSp	0	5	0	0	0	0	5000	4	Cue34.jpg	-16	0	0	0	0	0	0
5	2023-03-28	08:38:21	09:24:57	09:24:57:069	121	4	TNT_Think_CSp	Intrusion	0	1000	3000	0	0	0	2000	1	How <b>often</b> did you <b>think</b> about the <b>scene</b>?   <center><br><b>NEVER (1)    BRIEFLY (2)   OFTEN (3) </b>	-16	0	0	0	0	0	0
5	2023-03-28	08:38:21	09:25:00	09:25:00:566	122	1	TNT_Think_CSm	fixation	0	5	1500	0	0	1	1495	1	+	-9	0	0	0	0	0	0
5	2023-03-28	08:38:21	09:25:01	09:25:01:579	122	2	TNT_Think_CSm	Think	0	5	0	0	0	0	1000	1	THINK	-16	0	0	0	0	0	0
5	2023-03-28	08:38:21	09:25:06	09:25:06:596	122	3	TNT_Think_CSm	TNT_Think_CSm	0	5	0	0	0	0	5000	2	Cue2.jpg	-16	0	0	0	0	0	0
5	2023-03-28	08:38:21	09:25:08	09:25:08:103	122	4	TNT_Think_CSm	Intrusion	0	500	3000	0	0	0	2500	1	How <b>often</b> did you <b>think</b> about the <b>scene</b>?   <center><br><b>NEVER (1)    BRIEFLY (2)   OFTEN (3) </b>	-16	0	0	0	0	0	0
5	2023-03-28	08:38:21	09:25:09	09:25:09:099	123	1	TNT_Think_CSp	fixation	0	5	500	0	0	1	495	1	+	-9	0	0	0	0	0	0
5	2023-03-28	08:38:21	09:25:10	09:25:10:113	123	2	TNT_Think_CSp	Think	0	5	0	0	0	0	1000	1	THINK	-16	0	0	0	0	0	0
5	2023-03-28	08:38:21	09:25:15	09:25:15:130	123	3	TNT_Think_CSp	TNT_Think_CSp	0	5	0	0	0	0	5000	3	Cue16.jpg	-16	0	0	0	0	0	0
5	2023-03-28	08:38:21	09:25:17	09:25:17:596	123	4	TNT_Think_CSp	Intrusion	0	1500	3000	0	80	1	1448	1	How <b>often</b> did you <b>think</b> about the <b>scene</b>?   <center><br><b>NEVER (1)    BRIEFLY (2)   OFTEN (3) </b>	-16	0	0	0	0	0	0
5	2023-03-28	08:38:21	09:25:20	09:25:20:634	124	1	TNT_Think_CSp	fixation	0	5	1500	0	0	1	1495	1	+	-8	0	0	0	0	0	0
5	2023-03-28	08:38:21	09:25:21	09:25:21:647	124	2	TNT_Think_CSp	Think	0	5	0	0	0	0	1000	1	THINK	-16	0	0	0	0	0	0
5	2023-03-28	08:38:21	09:25:26	09:25:26:664	124	3	TNT_Think_CSp	TNT_Think_CSp	0	5	0	0	0	0	5000	1	Cue31.jpg	-16	0	0	0	0	0	0
5	2023-03-28	08:38:21	09:25:27	09:25:27:171	124	4	TNT_Think_CSp	Intrusion	0	1500	3000	0	0	0	1500	1	How <b>often</b> did you <b>think</b> about the <b>scene</b>?   <center><br><b>NEVER (1)    BRIEFLY (2)   OFTEN (3) </b>	-16	0	0	0	0	0	0
5	2023-03-28	08:38:21	09:25:30	09:25:30:668	125	1	TNT_Object_CSm	fixation	0	5	1000	0	0	1	995	1	+	-9	0	0	0	0	0	0
5	2023-03-28	08:38:21	09:25:31	09:25:31:681	125	2	TNT_Object_CSm	Passive	0	5	0	0	0	0	1000	1	VIEW	-16	0	0	0	0	0	0
5	2023-03-28	08:38:21	09:25:36	09:25:36:698	125	3	TNT_Object_CSm	TNT_Object_CSm	0	1000	0	0	0	0	5000	4	Object4.jpg	-16	0	0	0	0	0	0
5	2023-03-28	08:38:21	09:25:38	09:25:38:697	126	1	TNT_NoThink_CSm	fixation	0	5	1000	0	0	1	995	1	+	-8	0	0	0	0	0	0
5	2023-03-28	08:38:21	09:25:39	09:25:39:715	126	2	TNT_NoThink_CSm	NoThink	0	5	0	0	0	0	1000	1	DON'T THINK	-16	0	0	0	0	0	0
5	2023-03-28	08:38:21	09:25:44	09:25:44:731	126	3	TNT_NoThink_CSm	TNT_NoThink_CSm	0	5	0	0	0	0	5000	4	Cue20.jpg	-16	0	0	0	0	0	0
5	2023-03-28	08:38:21	09:25:45	09:25:45:340	126	4	TNT_NoThink_CSm	Intrusion	0	500	3000	0	80	1	591	1	How <b>often</b> did you <b>think</b> about the <b>scene</b>?   <center><br><b>NEVER (1)    BRIEFLY (2)   OFTEN (3) </b>	-16	0	0	0	0	0	0
5	2023-03-28	08:38:21	09:25:48	09:25:48:235	127	1	TNT_Object_CSp	fixation	0	5	1500	0	0	1	1495	1	+	-8	0	0	0	0	0	0
5	2023-03-28	08:38:21	09:25:49	09:25:49:249	127	2	TNT_Object_CSp	Passive	0	5	0	0	0	0	1000	1	VIEW	-16	0	0	0	0	0	0
5	2023-03-28	08:38:21	09:25:55	09:25:55:266	127	3	TNT_Object_CSp	TNT_Object_CSp	0	1500	0	0	0	0	5000	2	Object1.jpg	-16	0	0	0	0	0	0
5	2023-03-28	08:38:21	09:25:57	09:25:57:265	128	1	TNT_NoThink_CSm	fixation	0	5	500	0	0	1	495	1	+	-9	0	0	0	0	0	0
5	2023-03-28	08:38:21	09:25:58	09:25:58:283	128	2	TNT_NoThink_CSm	NoThink	0	5	0	0	0	0	1000	1	DON'T THINK	-16	0	0	0	0	0	0
5	2023-03-28	08:38:21	09:26:03	09:26:03:299	128	3	TNT_NoThink_CSm	TNT_NoThink_CSm	0	5	0	0	0	0	5000	6	Cue15.jpg	-16	0	0	0	0	0	0
5	2023-03-28	08:38:21	09:26:03	09:26:03:676	128	4	TNT_NoThink_CSm	Intrusion	0	1000	3000	0	79	1	359	1	How <b>often</b> did you <b>think</b> about the <b>scene</b>?   <center><br><b>NEVER (1)    BRIEFLY (2)   OFTEN (3) </b>	-16	0	0	0	0	0	0
5	2023-03-28	08:38:21	09:26:07	09:26:07:803	129	1	TNT_Think_CSp	fixation	0	5	1500	0	0	1	1495	1	+	-9	0	0	0	0	0	0
5	2023-03-28	08:38:21	09:26:08	09:26:08:816	129	2	TNT_Think_CSp	Think	0	5	0	0	0	0	1000	1	THINK	-16	0	0	0	0	0	0
5	2023-03-28	08:38:21	09:26:13	09:26:13:833	129	3	TNT_Think_CSp	TNT_Think_CSp	0	5	0	0	0	0	5000	6	Cue36.jpg	-16	0	0	0	0	0	0
5	2023-03-28	08:38:21	09:26:14	09:26:14:364	129	4	TNT_Think_CSp	Intrusion	0	1500	3000	0	79	1	513	1	How <b>often</b> did you <b>think</b> about the <b>scene</b>?   <center><br><b>NEVER (1)    BRIEFLY (2)   OFTEN (3) </b>	-16	0	0	0	0	0	0
5	2023-03-28	08:38:21	09:26:17	09:26:17:337	130	1	TNT_Think_CSp	fixation	0	5	500	0	0	1	495	1	+	-2	0	0	0	0	0	0
5	2023-03-28	08:38:21	09:26:18	09:26:18:350	130	2	TNT_Think_CSp	Think	0	5	0	0	0	0	1000	1	THINK	-16	0	0	0	0	0	0
5	2023-03-28	08:38:21	09:26:23	09:26:23:367	130	3	TNT_Think_CSp	TNT_Think_CSp	0	5	0	0	0	0	5000	5	Cue8.jpg	-16	0	0	0	0	0	0
5	2023-03-28	08:38:21	09:26:25	09:26:25:484	130	4	TNT_Think_CSp	Intrusion	0	500	3000	0	81	1	2099	1	How <b>often</b> did you <b>think</b> about the <b>scene</b>?   <center><br><b>NEVER (1)    BRIEFLY (2)   OFTEN (3) </b>	-16	0	0	0	0	0	0
5	2023-03-28	08:38:21	09:26:27	09:26:27:371	131	1	TNT_NoThink_CSp	fixation	0	5	1000	0	0	1	995	1	+	-9	0	0	0	0	0	0
5	2023-03-28	08:38:21	09:26:28	09:26:28:384	131	2	TNT_NoThink_CSp	NoThink	0	5	0	0	0	0	1000	1	DON'T THINK	-16	0	0	0	0	0	0
5	2023-03-28	08:38:21	09:26:33	09:26:33:401	131	3	TNT_NoThink_CSp	TNT_NoThink_CSp	0	5	0	0	0	0	5000	6	Cue23.jpg	-16	0	0	0	0	0	0
5	2023-03-28	08:38:21	09:26:33	09:26:33:772	131	4	TNT_NoThink_CSp	Intrusion	0	1000	3000	0	79	1	353	1	How <b>often</b> did you <b>think</b> about the <b>scene</b>?   <center><br><b>NEVER (1)    BRIEFLY (2)   OFTEN (3) </b>	-16	0	0	0	0	0	0
5	2023-03-28	08:38:21	09:26:37	09:26:37:905	132	1	TNT_Object_CSm	fixation	0	5	1500	0	0	1	1495	1	+	-9	0	0	0	0	0	0
5	2023-03-28	08:38:21	09:26:38	09:26:38:918	132	2	TNT_Object_CSm	Passive	0	5	0	0	0	0	1000	1	VIEW	-16	0	0	0	0	0	0
5	2023-03-28	08:38:21	09:26:43	09:26:43:935	132	3	TNT_Object_CSm	TNT_Object_CSm	0	500	0	0	0	0	5000	2	Object2.jpg	-16	0	0	0	0	0	0
5	2023-03-28	08:38:21	09:26:45	09:26:45:434	133	1	TNT_Object_CSp	fixation	0	5	1000	0	0	1	995	1	+	-9	0	0	0	0	0	0
5	2023-03-28	08:38:21	09:26:46	09:26:46:452	133	2	TNT_Object_CSp	Passive	0	5	0	0	0	0	1000	1	VIEW	-16	0	0	0	0	0	0
5	2023-03-28	08:38:21	09:26:51	09:26:51:469	133	3	TNT_Object_CSp	TNT_Object_CSp	0	1000	0	0	0	0	5000	1	Object3.jpg	-16	0	0	0	0	0	0
5	2023-03-28	08:38:21	09:26:52	09:26:52:968	134	1	TNT_NoThink_CSm	fixation	0	5	500	0	0	1	495	1	+	-9	0	0	0	0	0	0
5	2023-03-28	08:38:21	09:26:53	09:26:53:986	134	2	TNT_NoThink_CSm	NoThink	0	5	0	0	0	0	1000	1	DON'T THINK	-16	0	0	0	0	0	0
