subject	date	time	currenttime	currenttime_plus_ms	blocknum	trialnum	blockcode	trialcode	pretrialpause	posttrialpause	trialduration	trialtimeout	response	correct	latency	stimulusnumber1	stimulusitem1	stimulusonset1	stimulusnumber2	stimulusitem2	stimulusonset2	stimulusnumber3	stimulusitem3	stimulusonset3
19	2023-04-20	09:19:42	09:20:44	09:20:44:614	1	1	countdown	instructions	0	5	0	0	57	0	5551	1	<center><br><br> <b>WATCH CALLIBRATION</b>.                <br><br><br><br>In a couple of seconds a <b>countdown</b> will start that counts down from 3 to 1,       <br><br>after which the screen will show the instruction <b>PRESS BUTTON</b>.       <br><br><b>As soon as you see that screen</b>, you must shortly press the button on your watch.       <br><br> <br><br> Press SPACE  to continue.	-16	0	0	0	0	0	0
19	2023-04-20	09:19:42	09:20:45	09:20:45:645	1	2	countdown	countdown_3	0	5	0	0	0	0	1000	1	3	-8	0	0	0	0	0	0
19	2023-04-20	09:19:42	09:20:46	09:20:46:662	1	3	countdown	countdown_2	0	5	0	0	0	0	1000	1	2	-16	0	0	0	0	0	0
19	2023-04-20	09:19:42	09:20:47	09:20:47:679	1	4	countdown	countdown_1	0	5	0	0	0	0	1000	1	1	-16	0	0	0	0	0	0
19	2023-04-20	09:19:42	09:20:48	09:20:48:695	1	5	countdown	press_button	0	5	0	0	0	0	1000	1	PRESS BUTTON NOW	-16	0	0	0	0	0	0
19	2023-04-20	09:19:42	09:23:58	09:23:58:046	2	1	Rest	Rest	0	5	0	0	0	0	180000	1	+	-9	0	0	0	0	0	0
19	2023-04-20	09:19:42	09:24:04	09:24:04:350	3	1	countdown	instructions	0	5	0	0	57	0	6259	1	<center><br><br> <b>WATCH CALLIBRATION</b>.                <br><br><br><br>In a couple of seconds a <b>countdown</b> will start that counts down from 3 to 1,       <br><br>after which the screen will show the instruction <b>PRESS BUTTON</b>.       <br><br><b>As soon as you see that screen</b>, you must shortly press the button on your watch.       <br><br> <br><br> Press SPACE  to continue.	-5	0	0	0	0	0	0
19	2023-04-20	09:19:42	09:24:05	09:24:05:391	3	2	countdown	countdown_3	0	5	0	0	0	0	1000	1	3	-9	0	0	0	0	0	0
19	2023-04-20	09:19:42	09:24:06	09:24:06:407	3	3	countdown	countdown_2	0	5	0	0	0	0	1000	1	2	-16	0	0	0	0	0	0
19	2023-04-20	09:19:42	09:24:07	09:24:07:424	3	4	countdown	countdown_1	0	5	0	0	0	0	1000	1	1	-16	0	0	0	0	0	0
19	2023-04-20	09:19:42	09:24:08	09:24:08:441	3	5	countdown	press_button	0	5	0	0	0	0	1000	1	PRESS BUTTON NOW	-16	0	0	0	0	0	0
19	2023-04-20	09:19:42	09:25:09	09:25:09:502	2	1	Reminder_Objects_CSp	fixation	0	5	500	0	0	1	495	1	+	-8	0	0	0	0	0	0
19	2023-04-20	09:19:42	09:25:14	09:25:14:530	2	2	Reminder_Objects_CSp	Objects_CSp	0	5	0	0	0	0	5000	3	Object6.jpg	-16	0	0	0	0	0	0
19	2023-04-20	09:19:42	09:25:22	09:25:22:346	2	3	Reminder_Objects_CSp	expectancy_object	0	500	0	0	80	0	7761	1	When you saw the <b>object</b>,   to what <b>degree (0-100%)</b> did you expect the <b>unpleasant sound to occur</b>?	0	0	0	0	0	0	0
19	2023-04-20	09:19:42	09:25:24	09:25:24:345	3	1	Reminder_Think_CSp	fixation	0	5	1500	0	0	1	1495	1	+	-15	0	0	0	0	0	0
19	2023-04-20	09:19:42	09:25:29	09:25:29:365	3	2	Reminder_Think_CSp	Think_CSp	0	5	0	0	0	0	5000	1	+	-16	5	Cue32.jpg	-16	5	Target32.jpg	-16
19	2023-04-20	09:19:42	09:25:32	09:25:32:496	3	3	Reminder_Think_CSp	valence	0	5	0	0	50	0	3063	1	I found these images to be...	-8	0	0	0	0	0	0
19	2023-04-20	09:19:42	09:25:39	09:25:39:097	3	4	Reminder_Think_CSp	expectancy	0	1500	0	0	40	0	6537	1	When you saw the <b>object-scene</b>,   to what <b>degree (0-100%)</b> did you expect the <b>unpleasant sound to occur</b>?	-7	0	0	0	0	0	0
19	2023-04-20	09:19:42	09:25:41	09:25:41:596	4	1	Reminder_Think_CSp	fixation	0	5	1000	0	0	1	995	1	+	-14	0	0	0	0	0	0
19	2023-04-20	09:19:42	09:25:46	09:25:46:614	4	2	Reminder_Think_CSp	Think_CSp	0	5	0	0	0	0	5000	1	+	-13	3	Cue2.jpg	-13	3	Target2.jpg	-13
19	2023-04-20	09:19:42	09:25:51	09:25:51:914	4	3	Reminder_Think_CSp	valence	0	5	0	0	50	0	4277	1	I found these images to be...	-16	0	0	0	0	0	0
19	2023-04-20	09:19:42	09:26:01	09:26:01:181	4	4	Reminder_Think_CSp	expectancy	0	1000	0	0	40	0	10200	1	When you saw the <b>object-scene</b>,   to what <b>degree (0-100%)</b> did you expect the <b>unpleasant sound to occur</b>?	-12	0	0	0	0	0	0
19	2023-04-20	09:19:42	09:26:02	09:26:02:663	5	1	Reminder_Think_CSm	fixation	0	5	500	0	0	1	495	1	+	-14	0	0	0	0	0	0
19	2023-04-20	09:19:42	09:26:07	09:26:07:681	5	2	Reminder_Think_CSm	Think_CSm	0	5	0	0	0	0	5000	1	+	-13	2	Cue29.jpg	-13	2	Target29.jpg	-13
19	2023-04-20	09:19:42	09:26:11	09:26:11:133	5	3	Reminder_Think_CSm	valence	0	5	0	0	50	0	3425	1	I found these images to be...	-16	0	0	0	0	0	0
19	2023-04-20	09:19:42	09:26:16	09:26:16:199	5	4	Reminder_Think_CSm	expectancy	0	500	0	0	41	0	5022	1	When you saw the <b>object-scene</b>,   to what <b>degree (0-100%)</b> did you expect the <b>unpleasant sound to occur</b>?	-12	0	0	0	0	0	0
19	2023-04-20	09:19:42	09:26:17	09:26:17:698	6	1	Reminder_NoThink_CSm	fixation	0	5	1000	0	0	1	995	1	+	-13	0	0	0	0	0	0
19	2023-04-20	09:19:42	09:26:22	09:26:22:718	6	2	Reminder_NoThink_CSm	NoThink_CSm	0	5	0	0	0	0	5000	1	+	-16	5	Cue26.jpg	-16	5	Target26.jpg	-16
19	2023-04-20	09:19:42	09:26:24	09:26:24:516	6	3	Reminder_NoThink_CSm	valence	0	5	0	0	50	0	1775	1	I found these images to be...	-16	0	0	0	0	0	0
19	2023-04-20	09:19:42	09:26:29	09:26:29:449	6	4	Reminder_NoThink_CSm	expectancy	0	1000	0	0	52	0	4862	1	When you saw the <b>object-scene</b>,   to what <b>degree (0-100%)</b> did you expect the <b>unpleasant sound to occur</b>?	1	0	0	0	0	0	0
19	2023-04-20	09:19:42	09:26:32	09:26:32:936	7	1	Reminder_Objects_CSm	fixation	0	5	1500	0	0	1	1495	1	+	-8	0	0	0	0	0	0
19	2023-04-20	09:19:42	09:26:37	09:26:37:952	7	2	Reminder_Objects_CSm	Objects_CSm	0	5	0	0	0	0	5000	3	Object1.jpg	-16	0	0	0	0	0	0
19	2023-04-20	09:19:42	09:26:39	09:26:39:083	7	3	Reminder_Objects_CSm	expectancy_object	0	1000	0	0	50	0	2084	1	When you saw the <b>object</b>,   to what <b>degree (0-100%)</b> did you expect the <b>unpleasant sound to occur</b>?	-16	0	0	0	0	0	0
19	2023-04-20	09:19:42	09:26:41	09:26:41:570	8	1	Reminder_Baseline_CSm	fixation	0	5	1500	0	0	1	1495	1	+	-9	0	0	0	0	0	0
19	2023-04-20	09:19:42	09:26:46	09:26:46:586	8	2	Reminder_Baseline_CSm	Baseline_CSm	0	5	0	0	0	0	5000	1	+	-16	6	Cue7.jpg	-16	6	Target7.jpg	-16
19	2023-04-20	09:19:42	09:26:47	09:26:47:667	8	3	Reminder_Baseline_CSm	valence	0	5	0	0	50	0	1058	1	I found these images to be...	-16	0	0	0	0	0	0
19	2023-04-20	09:19:42	09:26:53	09:26:53:435	8	4	Reminder_Baseline_CSm	expectancy	0	1500	0	0	34	0	5719	1	When you saw the <b>object-scene</b>,   to what <b>degree (0-100%)</b> did you expect the <b>unpleasant sound to occur</b>?	0	0	0	0	0	0	0
19	2023-04-20	09:19:42	09:26:56	09:26:56:937	9	1	Reminder_Baseline_CSp	fixation	0	5	1000	0	0	1	995	1	+	-9	0	0	0	0	0	0
19	2023-04-20	09:19:42	09:27:01	09:27:01:954	9	2	Reminder_Baseline_CSp	Baseline_CSp	0	5	0	0	0	0	5000	1	+	-16	6	Cue1.jpg	-16	6	Target1.jpg	-16
19	2023-04-20	09:19:42	09:27:02	09:27:02:368	9	3	Reminder_Baseline_CSp	valence	0	5	0	0	50	0	1363	1	I found these images to be...	-16	0	0	0	0	0	0
19	2023-04-20	09:19:42	09:27:16	09:27:16:669	9	4	Reminder_Baseline_CSp	expectancy	0	500	0	0	53	0	14233	1	When you saw the <b>object-scene</b>,   to what <b>degree (0-100%)</b> did you expect the <b>unpleasant sound to occur</b>?	-7	0	0	0	0	0	0
19	2023-04-20	09:19:42	09:27:17	09:27:17:655	10	1	Reminder_NoThink_CSm	fixation	0	5	500	0	0	1	495	1	+	-9	0	0	0	0	0	0
19	2023-04-20	09:19:42	09:27:22	09:27:22:672	10	2	Reminder_NoThink_CSm	NoThink_CSm	0	5	0	0	0	0	5000	1	+	-16	3	Cue10.jpg	-16	3	Target10.jpg	-16
19	2023-04-20	09:19:42	09:27:23	09:27:23:803	10	3	Reminder_NoThink_CSm	valence	0	5	0	0	50	0	1109	1	I found these images to be...	-16	0	0	0	0	0	0
19	2023-04-20	09:19:42	09:27:24	09:27:24:812	10	4	Reminder_NoThink_CSm	expectancy	0	1500	0	0	50	0	943	1	When you saw the <b>object-scene</b>,   to what <b>degree (0-100%)</b> did you expect the <b>unpleasant sound to occur</b>?	0	0	0	0	0	0	0
19	2023-04-20	09:19:42	09:27:27	09:27:27:803	11	1	Reminder_NoThink_CSm	fixation	0	5	1500	0	0	1	1495	1	+	-6	0	0	0	0	0	0
19	2023-04-20	09:19:42	09:27:32	09:27:32:822	11	2	Reminder_NoThink_CSm	NoThink_CSm	0	5	0	0	0	0	5000	1	+	-16	4	Cue4.jpg	-16	4	Target4.jpg	-16
19	2023-04-20	09:19:42	09:27:38	09:27:38:254	11	3	Reminder_NoThink_CSm	valence	0	5	0	0	70	0	5406	1	I found these images to be...	-16	0	0	0	0	0	0
19	2023-04-20	09:19:42	09:27:43	09:27:43:104	11	4	Reminder_NoThink_CSm	expectancy	0	1000	0	0	30	0	4804	1	When you saw the <b>object-scene</b>,   to what <b>degree (0-100%)</b> did you expect the <b>unpleasant sound to occur</b>?	-12	0	0	0	0	0	0
19	2023-04-20	09:19:42	09:27:45	09:27:45:103	12	1	Reminder_Baseline_CSm	fixation	0	5	1000	0	0	1	995	1	+	-15	0	0	0	0	0	0
19	2023-04-20	09:19:42	09:27:50	09:27:50:121	12	2	Reminder_Baseline_CSm	Baseline_CSm	0	5	0	0	0	0	5000	1	+	-14	2	Cue20.jpg	-14	2	Target20.jpg	-14
19	2023-04-20	09:19:42	09:27:51	09:27:51:954	12	3	Reminder_Baseline_CSm	valence	0	5	0	0	50	0	802	1	I found these images to be...	-16	0	0	0	0	0	0
19	2023-04-20	09:19:42	09:27:54	09:27:54:105	12	4	Reminder_Baseline_CSm	expectancy	0	500	0	0	20	0	3111	1	When you saw the <b>object-scene</b>,   to what <b>degree (0-100%)</b> did you expect the <b>unpleasant sound to occur</b>?	-10	0	0	0	0	0	0
19	2023-04-20	09:19:42	09:27:55	09:27:55:103	13	1	Reminder_NoThink_CSp	fixation	0	5	500	0	0	1	495	1	+	-14	0	0	0	0	0	0
19	2023-04-20	09:19:42	09:28:00	09:28:00:124	13	2	Reminder_NoThink_CSp	NoThink_CSp	0	5	0	0	0	0	5000	1	+	-14	1	Cue30.jpg	-14	1	Target30.jpg	-14
19	2023-04-20	09:19:42	09:28:01	09:28:01:172	13	3	Reminder_NoThink_CSp	valence	0	5	0	0	50	0	1025	1	I found these images to be...	-16	0	0	0	0	0	0
19	2023-04-20	09:19:42	09:28:10	09:28:10:539	13	4	Reminder_NoThink_CSp	expectancy	0	500	0	0	65	0	9325	1	When you saw the <b>object-scene</b>,   to what <b>degree (0-100%)</b> did you expect the <b>unpleasant sound to occur</b>?	0	0	0	0	0	0	0
19	2023-04-20	09:19:42	09:28:12	09:28:12:037	14	1	PracticeItems_NoThink	fixation	0	5	1000	0	0	1	995	1	+	-14	0	0	0	0	0	0
19	2023-04-20	09:19:42	09:28:17	09:28:17:056	14	2	PracticeItems_NoThink	PracticeItems_NoThink	0	5	0	0	0	0	5000	1	+	-14	2	Cue40.jpg	-14	2	Target40.jpg	-14
19	2023-04-20	09:19:42	09:28:19	09:28:19:972	14	3	PracticeItems_NoThink	valence	0	5	0	0	50	0	1866	1	I found these images to be...	-16	0	0	0	0	0	0
19	2023-04-20	09:19:42	09:28:26	09:28:26:189	14	4	PracticeItems_NoThink	expectancy	0	1500	0	0	40	0	7180	1	When you saw the <b>object-scene</b>,   to what <b>degree (0-100%)</b> did you expect the <b>unpleasant sound to occur</b>?	-9	0	0	0	0	0	0
19	2023-04-20	09:19:42	09:28:28	09:28:28:188	15	1	Reminder_NoThink_CSp	fixation	0	5	500	0	0	1	495	1	+	-15	0	0	0	0	0	0
19	2023-04-20	09:19:42	09:28:33	09:28:33:207	15	2	Reminder_NoThink_CSp	NoThink_CSp	0	5	0	0	0	0	5000	1	+	-13	5	Cue18.jpg	-13	5	Target18.jpg	-13
19	2023-04-20	09:19:42	09:28:36	09:28:36:791	15	3	Reminder_NoThink_CSp	valence	0	5	0	0	30	0	3563	1	I found these images to be...	-16	0	0	0	0	0	0
19	2023-04-20	09:19:42	09:28:42	09:28:42:524	15	4	Reminder_NoThink_CSp	expectancy	0	1000	0	0	50	0	5690	1	When you saw the <b>object-scene</b>,   to what <b>degree (0-100%)</b> did you expect the <b>unpleasant sound to occur</b>?	-12	0	0	0	0	0	0
19	2023-04-20	09:19:42	09:28:45	09:28:45:023	16	1	Reminder_Baseline_CSp	fixation	0	5	1500	0	0	1	1495	1	+	-15	0	0	0	0	0	0
19	2023-04-20	09:19:42	09:28:50	09:28:50:044	16	2	Reminder_Baseline_CSp	Baseline_CSp	0	5	0	0	0	0	5000	1	+	-14	5	Cue35.jpg	-14	5	Target35.jpg	-14
19	2023-04-20	09:19:42	09:28:51	09:28:51:958	16	3	Reminder_Baseline_CSp	valence	0	5	0	0	50	0	865	1	I found these images to be...	-16	0	0	0	0	0	0
19	2023-04-20	09:19:42	09:28:56	09:28:56:091	16	4	Reminder_Baseline_CSp	expectancy	0	1500	0	0	60	0	5060	1	When you saw the <b>object-scene</b>,   to what <b>degree (0-100%)</b> did you expect the <b>unpleasant sound to occur</b>?	-8	0	0	0	0	0	0
19	2023-04-20	09:19:42	09:28:59	09:28:59:078	17	1	Reminder_Objects_CSm	fixation	0	5	1500	0	0	1	1495	1	+	-8	0	0	0	0	0	0
19	2023-04-20	09:19:42	09:29:04	09:29:04:094	17	2	Reminder_Objects_CSm	Objects_CSm	0	5	0	0	0	0	5000	1	Object3.jpg	-16	0	0	0	0	0	0
19	2023-04-20	09:19:42	09:29:09	09:29:09:575	17	3	Reminder_Objects_CSm	expectancy_object	0	1500	0	0	30	0	5453	1	When you saw the <b>object</b>,   to what <b>degree (0-100%)</b> did you expect the <b>unpleasant sound to occur</b>?	-16	0	0	0	0	0	0
19	2023-04-20	09:19:42	09:29:12	09:29:12:074	18	1	Reminder_Think_CSm	fixation	0	5	1000	0	0	1	995	1	+	-15	0	0	0	0	0	0
19	2023-04-20	09:19:42	09:29:17	09:29:17:093	18	2	Reminder_Think_CSm	Think_CSm	0	5	0	0	0	0	5000	1	+	-13	4	Cue34.jpg	-13	4	Target34.jpg	-13
19	2023-04-20	09:19:42	09:29:18	09:29:18:577	18	3	Reminder_Think_CSm	valence	0	5	0	0	50	0	1462	1	I found these images to be...	-16	0	0	0	0	0	0
19	2023-04-20	09:19:42	09:29:23	09:29:23:293	18	4	Reminder_Think_CSm	expectancy	0	500	0	0	26	0	4680	1	When you saw the <b>object-scene</b>,   to what <b>degree (0-100%)</b> did you expect the <b>unpleasant sound to occur</b>?	-12	0	0	0	0	0	0
19	2023-04-20	09:19:42	09:29:24	09:29:24:292	19	1	PracticeItems_Think	fixation	0	5	500	0	0	1	495	1	+	-14	0	0	0	0	0	0
19	2023-04-20	09:19:42	09:29:29	09:29:29:310	19	2	PracticeItems_Think	PracticeItems_Think	0	5	0	0	0	0	5000	1	+	-13	1	Cue37.jpg	-13	1	Target37.jpg	-13
19	2023-04-20	09:19:42	09:29:30	09:29:30:510	19	3	PracticeItems_Think	valence	0	5	0	0	50	0	1179	1	I found these images to be...	-16	0	0	0	0	0	0
19	2023-04-20	09:19:42	09:29:31	09:29:31:511	19	4	PracticeItems_Think	expectancy	0	1000	0	0	50	0	956	1	When you saw the <b>object-scene</b>,   to what <b>degree (0-100%)</b> did you expect the <b>unpleasant sound to occur</b>?	-12	0	0	0	0	0	0
19	2023-04-20	09:19:42	09:29:33	09:29:33:510	20	1	Reminder_Baseline_CSp	fixation	0	5	1000	0	0	1	995	1	+	-15	0	0	0	0	0	0
19	2023-04-20	09:19:42	09:29:38	09:29:38:527	20	2	Reminder_Baseline_CSp	Baseline_CSp	0	5	0	0	0	0	5000	1	+	-16	2	Cue3.jpg	-16	2	Target3.jpg	-16
19	2023-04-20	09:19:42	09:29:39	09:29:39:778	20	3	Reminder_Baseline_CSp	valence	0	5	0	0	50	0	1218	1	I found these images to be...	-16	0	0	0	0	0	0
19	2023-04-20	09:19:42	09:29:43	09:29:43:561	20	4	Reminder_Baseline_CSp	expectancy	0	500	0	0	56	0	3711	1	When you saw the <b>object-scene</b>,   to what <b>degree (0-100%)</b> did you expect the <b>unpleasant sound to occur</b>?	-12	0	0	0	0	0	0
19	2023-04-20	09:19:42	09:29:45	09:29:45:545	21	1	Reminder_NoThink_CSp	fixation	0	5	1500	0	0	1	1495	1	+	-4	0	0	0	0	0	0
19	2023-04-20	09:19:42	09:29:50	09:29:50:564	21	2	Reminder_NoThink_CSp	NoThink_CSp	0	5	0	0	0	0	5000	1	+	-16	3	Cue9.jpg	-16	3	Target9.jpg	-16
19	2023-04-20	09:19:42	09:29:52	09:29:52:028	21	3	Reminder_NoThink_CSp	valence	0	5	0	0	50	0	1440	1	I found these images to be...	-16	0	0	0	0	0	0
19	2023-04-20	09:19:42	09:30:01	09:30:01:962	21	4	Reminder_NoThink_CSp	expectancy	0	1000	0	0	40	0	8884	1	When you saw the <b>object-scene</b>,   to what <b>degree (0-100%)</b> did you expect the <b>unpleasant sound to occur</b>?	0	0	0	0	0	0	0
19	2023-04-20	09:19:42	09:30:02	09:30:02:461	22	1	Reminder_Objects_CSp	fixation	0	5	500	0	0	1	495	1	+	-15	0	0	0	0	0	0
19	2023-04-20	09:19:42	09:30:07	09:30:07:479	22	2	Reminder_Objects_CSp	Objects_CSp	0	5	0	0	0	0	5000	4	Object7.jpg	-14	0	0	0	0	0	0
19	2023-04-20	09:19:42	09:30:12	09:30:12:179	22	3	Reminder_Objects_CSp	expectancy_object	0	1500	0	0	65	0	4650	1	When you saw the <b>object</b>,   to what <b>degree (0-100%)</b> did you expect the <b>unpleasant sound to occur</b>?	-16	0	0	0	0	0	0
19	2023-04-20	09:19:42	09:30:14	09:30:14:162	23	1	Reminder_Baseline_CSm	fixation	0	5	500	0	0	1	495	1	+	-14	0	0	0	0	0	0
19	2023-04-20	09:19:42	09:30:19	09:30:19:180	23	2	Reminder_Baseline_CSm	Baseline_CSm	0	5	0	0	0	0	5000	1	+	-13	1	Cue13.jpg	-13	1	Target13.jpg	-13
19	2023-04-20	09:19:42	09:30:24	09:30:24:964	23	3	Reminder_Baseline_CSm	valence	0	5	0	0	51	0	4758	1	I found these images to be...	-16	0	0	0	0	0	0
19	2023-04-20	09:19:42	09:30:28	09:30:28:648	23	4	Reminder_Baseline_CSm	expectancy	0	1500	0	0	51	0	4637	1	When you saw the <b>object-scene</b>,   to what <b>degree (0-100%)</b> did you expect the <b>unpleasant sound to occur</b>?	-12	0	0	0	0	0	0
19	2023-04-20	09:19:42	09:30:31	09:30:31:646	24	1	Reminder_Think_CSp	fixation	0	5	1500	0	0	1	1495	1	+	-14	0	0	0	0	0	0
19	2023-04-20	09:19:42	09:30:36	09:30:36:667	24	2	Reminder_Think_CSp	Think_CSp	0	5	0	0	0	0	5000	1	+	-13	1	Cue27.jpg	-13	1	Target27.jpg	-13
19	2023-04-20	09:19:42	09:30:38	09:30:38:247	24	3	Reminder_Think_CSp	valence	0	5	0	0	50	0	1530	1	I found these images to be...	-16	0	0	0	0	0	0
19	2023-04-20	09:19:42	09:30:44	09:30:44:231	24	4	Reminder_Think_CSp	expectancy	0	1000	0	0	60	0	5913	1	When you saw the <b>object-scene</b>,   to what <b>degree (0-100%)</b> did you expect the <b>unpleasant sound to occur</b>?	-7	0	0	0	0	0	0
19	2023-04-20	09:19:42	09:30:46	09:30:46:218	25	1	Reminder_Baseline_CSp	fixation	0	5	1000	0	0	1	995	1	+	-1	0	0	0	0	0	0
19	2023-04-20	09:19:42	09:30:51	09:30:51:234	25	2	Reminder_Baseline_CSp	Baseline_CSp	0	5	0	0	0	0	5000	1	+	-16	1	Cue31.jpg	-16	1	Target31.jpg	-16
19	2023-04-20	09:19:42	09:30:52	09:30:52:481	25	3	Reminder_Baseline_CSp	valence	0	5	0	0	50	0	1194	1	I found these images to be...	-16	0	0	0	0	0	0
19	2023-04-20	09:19:42	09:30:56	09:30:56:915	25	4	Reminder_Baseline_CSp	expectancy	0	1500	0	0	57	0	3383	1	When you saw the <b>object-scene</b>,   to what <b>degree (0-100%)</b> did you expect the <b>unpleasant sound to occur</b>?	-8	0	0	0	0	0	0
19	2023-04-20	09:19:42	09:30:58	09:30:58:918	26	1	Reminder_NoThink_CSm	fixation	0	5	500	0	0	1	495	1	+	-9	0	0	0	0	0	0
19	2023-04-20	09:19:42	09:31:03	09:31:03:935	26	2	Reminder_NoThink_CSm	NoThink_CSm	0	5	0	0	0	0	5000	1	+	-16	2	Cue33.jpg	-16	2	Target33.jpg	-16
19	2023-04-20	09:19:42	09:31:04	09:31:04:082	26	3	Reminder_NoThink_CSm	valence	0	5	0	0	50	0	1093	1	I found these images to be...	-16	0	0	0	0	0	0
19	2023-04-20	09:19:42	09:31:07	09:31:07:666	26	4	Reminder_NoThink_CSm	expectancy	0	500	0	0	25	0	3518	1	When you saw the <b>object-scene</b>,   to what <b>degree (0-100%)</b> did you expect the <b>unpleasant sound to occur</b>?	-8	0	0	0	0	0	0
19	2023-04-20	09:19:42	09:31:09	09:31:09:167	27	1	Reminder_Think_CSp	fixation	0	5	1000	0	0	1	995	1	+	-15	0	0	0	0	0	0
19	2023-04-20	09:19:42	09:31:14	09:31:14:183	27	2	Reminder_Think_CSp	Think_CSp	0	5	0	0	0	0	5000	1	+	-16	2	Cue6.jpg	-16	2	Target6.jpg	-16
19	2023-04-20	09:19:42	09:31:15	09:31:15:383	27	3	Reminder_Think_CSp	valence	0	5	0	0	50	0	1178	1	I found these images to be...	-16	0	0	0	0	0	0
19	2023-04-20	09:19:42	09:31:18	09:31:18:534	27	4	Reminder_Think_CSp	expectancy	0	1500	0	0	56	0	3106	1	When you saw the <b>object-scene</b>,   to what <b>degree (0-100%)</b> did you expect the <b>unpleasant sound to occur</b>?	-12	0	0	0	0	0	0
19	2023-04-20	09:19:42	09:31:21	09:31:21:532	28	1	Reminder_Objects_CSp	fixation	0	5	1500	0	0	1	1495	1	+	-14	0	0	0	0	0	0
19	2023-04-20	09:19:42	09:31:26	09:31:26:552	28	2	Reminder_Objects_CSp	Objects_CSp	0	5	0	0	0	0	5000	1	Object4.jpg	-14	0	0	0	0	0	0
19	2023-04-20	09:19:42	09:31:30	09:31:30:751	28	3	Reminder_Objects_CSp	expectancy_object	0	500	0	0	52	0	4147	1	When you saw the <b>object</b>,   to what <b>degree (0-100%)</b> did you expect the <b>unpleasant sound to occur</b>?	-16	0	0	0	0	0	0
19	2023-04-20	09:19:42	09:31:32	09:31:32:237	29	1	Reminder_Think_CSm	fixation	0	5	1000	0	0	1	995	1	+	-8	0	0	0	0	0	0
19	2023-04-20	09:19:42	09:31:37	09:31:37:253	29	2	Reminder_Think_CSm	Think_CSm	0	5	0	0	0	0	5000	1	+	-16	6	Cue16.jpg	-16	6	Target16.jpg	-16
19	2023-04-20	09:19:42	09:31:40	09:31:40:701	29	3	Reminder_Think_CSm	valence	0	5	0	0	50	0	3398	1	I found these images to be...	-16	0	0	0	0	0	0
19	2023-04-20	09:19:42	09:31:43	09:31:43:452	29	4	Reminder_Think_CSm	expectancy	0	500	0	0	52	0	2708	1	When you saw the <b>object-scene</b>,   to what <b>degree (0-100%)</b> did you expect the <b>unpleasant sound to occur</b>?	-8	0	0	0	0	0	0
19	2023-04-20	09:19:42	09:31:44	09:31:44:451	30	1	Reminder_NoThink_CSm	fixation	0	5	500	0	0	1	495	1	+	-15	0	0	0	0	0	0
19	2023-04-20	09:19:42	09:31:49	09:31:49:468	30	2	Reminder_NoThink_CSm	NoThink_CSm	0	5	0	0	0	0	5000	1	+	-13	1	Cue11.jpg	-13	1	Target11.jpg	-13
19	2023-04-20	09:19:42	09:31:50	09:31:50:552	30	3	Reminder_NoThink_CSm	valence	0	5	0	0	50	0	1053	1	I found these images to be...	-16	0	0	0	0	0	0
19	2023-04-20	09:19:42	09:31:53	09:31:53:936	30	4	Reminder_NoThink_CSm	expectancy	0	1000	0	0	40	0	2345	1	When you saw the <b>object-scene</b>,   to what <b>degree (0-100%)</b> did you expect the <b>unpleasant sound to occur</b>?	-12	0	0	0	0	0	0
19	2023-04-20	09:19:42	09:31:55	09:31:55:435	31	1	Reminder_Think_CSp	fixation	0	5	1500	0	0	1	1495	1	+	-14	0	0	0	0	0	0
19	2023-04-20	09:19:42	09:32:00	09:32:00:452	31	2	Reminder_Think_CSp	Think_CSp	0	5	0	0	0	0	5000	1	+	-14	6	Cue14.jpg	-14	6	Target14.jpg	-14
19	2023-04-20	09:19:42	09:32:01	09:32:01:369	31	3	Reminder_Think_CSp	valence	0	5	0	0	50	0	893	1	I found these images to be...	-16	0	0	0	0	0	0
19	2023-04-20	09:19:42	09:32:04	09:32:04:719	31	4	Reminder_Think_CSp	expectancy	0	1000	0	0	30	0	3312	1	When you saw the <b>object-scene</b>,   to what <b>degree (0-100%)</b> did you expect the <b>unpleasant sound to occur</b>?	-12	0	0	0	0	0	0
19	2023-04-20	09:19:42	09:32:06	09:32:06:718	32	1	Reminder_Objects_CSp	fixation	0	5	1000	0	0	1	995	1	+	-14	0	0	0	0	0	0
19	2023-04-20	09:19:42	09:32:11	09:32:11:736	32	2	Reminder_Objects_CSp	Objects_CSp	0	5	0	0	0	0	5000	2	Object2.jpg	-14	0	0	0	0	0	0
19	2023-04-20	09:19:42	09:32:17	09:32:17:504	32	3	Reminder_Objects_CSp	expectancy_object	0	1000	0	0	31	0	5737	1	When you saw the <b>object</b>,   to what <b>degree (0-100%)</b> did you expect the <b>unpleasant sound to occur</b>?	-16	0	0	0	0	0	0
19	2023-04-20	09:19:42	09:32:19	09:32:19:06	33	1	PracticeItems_NoThink	fixation	0	5	500	0	0	1	495	1	+	-8	0	0	0	0	0	0
19	2023-04-20	09:19:42	09:32:24	09:32:24:023	33	2	PracticeItems_NoThink	PracticeItems_NoThink	0	5	0	0	0	0	5000	1	+	-16	1	Cue39.jpg	-16	1	Target39.jpg	-16
19	2023-04-20	09:19:42	09:32:25	09:32:25:754	33	3	PracticeItems_NoThink	valence	0	5	0	0	50	0	1709	1	I found these images to be...	-16	0	0	0	0	0	0
19	2023-04-20	09:19:42	09:32:30	09:32:30:788	33	4	PracticeItems_NoThink	expectancy	0	500	0	0	72	0	4991	1	When you saw the <b>object-scene</b>,   to what <b>degree (0-100%)</b> did you expect the <b>unpleasant sound to occur</b>?	0	0	0	0	0	0	0
19	2023-04-20	09:19:42	09:32:32	09:32:32:787	34	1	Reminder_Think_CSm	fixation	0	5	1500	0	0	1	1495	1	+	-15	0	0	0	0	0	0
19	2023-04-20	09:19:42	09:32:37	09:32:37:805	34	2	Reminder_Think_CSm	Think_CSm	0	5	0	0	0	0	5000	1	+	-16	3	Cue17.jpg	-16	3	Target17.jpg	-16
19	2023-04-20	09:19:42	09:32:41	09:32:41:289	34	3	Reminder_Think_CSm	valence	0	5	0	0	46	0	3453	1	I found these images to be...	-16	0	0	0	0	0	0
19	2023-04-20	09:19:42	09:32:48	09:32:48:322	34	4	Reminder_Think_CSm	expectancy	0	1500	0	0	22	0	6985	1	When you saw the <b>object-scene</b>,   to what <b>degree (0-100%)</b> did you expect the <b>unpleasant sound to occur</b>?	-12	0	0	0	0	0	0
19	2023-04-20	09:19:42	09:32:50	09:32:50:821	35	1	Reminder_Think_CSm	fixation	0	5	1000	0	0	1	995	1	+	-14	0	0	0	0	0	0
19	2023-04-20	09:19:42	09:32:55	09:32:55:839	35	2	Reminder_Think_CSm	Think_CSm	0	5	0	0	0	0	5000	1	+	-14	1	Cue22.jpg	-14	1	Target22.jpg	-14
19	2023-04-20	09:19:42	09:32:57	09:32:57:489	35	3	Reminder_Think_CSm	valence	0	5	0	0	50	0	1619	1	I found these images to be...	-16	0	0	0	0	0	0
19	2023-04-20	09:19:42	09:33:02	09:33:02:190	35	4	Reminder_Think_CSm	expectancy	0	1000	0	0	26	0	4663	1	When you saw the <b>object-scene</b>,   to what <b>degree (0-100%)</b> did you expect the <b>unpleasant sound to occur</b>?	-12	0	0	0	0	0	0
19	2023-04-20	09:19:42	09:33:03	09:33:03:688	36	1	Reminder_NoThink_CSp	fixation	0	5	500	0	0	1	495	1	+	-14	0	0	0	0	0	0
19	2023-04-20	09:19:42	09:33:08	09:33:08:707	36	2	Reminder_NoThink_CSp	NoThink_CSp	0	5	0	0	0	0	5000	1	+	-13	4	Cue8.jpg	-13	4	Target8.jpg	-13
19	2023-04-20	09:19:42	09:33:12	09:33:12:257	36	3	Reminder_NoThink_CSp	valence	0	5	0	0	40	0	3519	1	I found these images to be...	-16	0	0	0	0	0	0
19	2023-04-20	09:19:42	09:33:17	09:33:17:940	36	4	Reminder_NoThink_CSp	expectancy	0	500	0	0	24	0	4616	1	When you saw the <b>object-scene</b>,   to what <b>degree (0-100%)</b> did you expect the <b>unpleasant sound to occur</b>?	0	0	0	0	0	0	0
19	2023-04-20	09:19:42	09:33:19	09:33:19:927	37	1	Reminder_Baseline_CSm	fixation	0	5	1500	0	0	1	1495	1	+	-9	0	0	0	0	0	0
19	2023-04-20	09:19:42	09:33:24	09:33:24:943	37	2	Reminder_Baseline_CSm	Baseline_CSm	0	5	0	0	0	0	5000	1	+	-16	5	Cue28.jpg	-16	5	Target28.jpg	-16
19	2023-04-20	09:19:42	09:33:27	09:33:27:407	37	3	Reminder_Baseline_CSm	valence	0	5	0	0	55	0	3413	1	I found these images to be...	-16	0	0	0	0	0	0
19	2023-04-20	09:19:42	09:33:32	09:33:32:108	37	4	Reminder_Baseline_CSm	expectancy	0	1500	0	0	20	0	4616	1	When you saw the <b>object-scene</b>,   to what <b>degree (0-100%)</b> did you expect the <b>unpleasant sound to occur</b>?	-7	0	0	0	0	0	0
19	2023-04-20	09:19:42	09:33:35	09:33:35:090	38	1	Reminder_Baseline_CSm	fixation	0	5	1500	0	0	1	1495	1	+	-15	0	0	0	0	0	0
19	2023-04-20	09:19:42	09:33:40	09:33:40:108	38	2	Reminder_Baseline_CSm	Baseline_CSm	0	5	0	0	0	0	5000	1	+	-14	4	Cue12.jpg	-14	4	Target12.jpg	-14
19	2023-04-20	09:19:42	09:33:44	09:33:44:209	38	3	Reminder_Baseline_CSm	valence	0	5	0	0	50	0	4077	1	I found these images to be...	-16	0	0	0	0	0	0
19	2023-04-20	09:19:42	09:33:49	09:33:49:658	38	4	Reminder_Baseline_CSm	expectancy	0	1500	0	0	24	0	5400	1	When you saw the <b>object-scene</b>,   to what <b>degree (0-100%)</b> did you expect the <b>unpleasant sound to occur</b>?	-12	0	0	0	0	0	0
19	2023-04-20	09:19:42	09:33:51	09:33:51:657	39	1	Reminder_Baseline_CSp	fixation	0	5	500	0	0	1	495	1	+	-14	0	0	0	0	0	0
19	2023-04-20	09:19:42	09:33:56	09:33:56:676	39	2	Reminder_Baseline_CSp	Baseline_CSp	0	5	0	0	0	0	5000	1	+	-14	4	Cue36.jpg	-14	4	Target36.jpg	-14
19	2023-04-20	09:19:42	09:33:58	09:33:58:109	39	3	Reminder_Baseline_CSp	valence	0	5	0	0	50	0	1382	1	I found these images to be...	-16	0	0	0	0	0	0
19	2023-04-20	09:19:42	09:34:05	09:34:05:376	39	4	Reminder_Baseline_CSp	expectancy	0	1000	0	0	52	0	7195	1	When you saw the <b>object-scene</b>,   to what <b>degree (0-100%)</b> did you expect the <b>unpleasant sound to occur</b>?	-10	0	0	0	0	0	0
19	2023-04-20	09:19:42	09:34:07	09:34:07:363	40	1	Reminder_Think_CSm	fixation	0	5	1000	0	0	1	995	1	+	-9	0	0	0	0	0	0
19	2023-04-20	09:19:42	09:34:12	09:34:12:379	40	2	Reminder_Think_CSm	Think_CSm	0	5	0	0	0	0	5000	1	+	-16	5	Cue5.jpg	-16	5	Target5.jpg	-16
19	2023-04-20	09:19:42	09:34:13	09:34:13:877	40	3	Reminder_Think_CSm	valence	0	5	0	0	50	0	1448	1	I found these images to be...	-16	0	0	0	0	0	0
19	2023-04-20	09:19:42	09:34:17	09:34:17:327	40	4	Reminder_Think_CSm	expectancy	0	500	0	0	60	0	3363	1	When you saw the <b>object-scene</b>,   to what <b>degree (0-100%)</b> did you expect the <b>unpleasant sound to occur</b>?	-8	0	0	0	0	0	0
19	2023-04-20	09:19:42	09:34:19	09:34:19:313	41	1	Reminder_Objects_CSm	fixation	0	5	1500	0	0	1	1495	1	+	-8	0	0	0	0	0	0
19	2023-04-20	09:19:42	09:34:24	09:34:24:329	41	2	Reminder_Objects_CSm	Objects_CSm	0	5	0	0	0	0	5000	2	Object5.jpg	-16	0	0	0	0	0	0
19	2023-04-20	09:19:42	09:34:29	09:34:29:978	41	3	Reminder_Objects_CSm	expectancy_object	0	1000	0	0	54	0	4594	1	When you saw the <b>object</b>,   to what <b>degree (0-100%)</b> did you expect the <b>unpleasant sound to occur</b>?	-16	0	0	0	0	0	0
19	2023-04-20	09:19:42	09:34:30	09:34:30:464	42	1	Reminder_Objects_CSm	fixation	0	5	500	0	0	1	495	1	+	-8	0	0	0	0	0	0
19	2023-04-20	09:19:42	09:34:35	09:34:35:480	42	2	Reminder_Objects_CSm	Objects_CSm	0	5	0	0	0	0	5000	4	Object8.jpg	-16	0	0	0	0	0	0
19	2023-04-20	09:19:42	09:34:39	09:34:39:078	42	3	Reminder_Objects_CSm	expectancy_object	0	500	0	0	30	0	3547	1	When you saw the <b>object</b>,   to what <b>degree (0-100%)</b> did you expect the <b>unpleasant sound to occur</b>?	-16	0	0	0	0	0	0
19	2023-04-20	09:19:42	09:34:40	09:34:40:565	43	1	Reminder_Baseline_CSm	fixation	0	5	1000	0	0	1	995	1	+	-8	0	0	0	0	0	0
19	2023-04-20	09:19:42	09:34:45	09:34:45:581	43	2	Reminder_Baseline_CSm	Baseline_CSm	0	5	0	0	0	0	5000	1	+	-16	3	Cue21.jpg	-16	3	Target21.jpg	-16
19	2023-04-20	09:19:42	09:34:49	09:34:49:646	43	3	Reminder_Baseline_CSm	valence	0	5	0	0	21	0	4014	1	I found these images to be...	-16	0	0	0	0	0	0
19	2023-04-20	09:19:42	09:34:59	09:34:59:479	43	4	Reminder_Baseline_CSm	expectancy	0	500	0	0	33	0	9787	1	When you saw the <b>object-scene</b>,   to what <b>degree (0-100%)</b> did you expect the <b>unpleasant sound to occur</b>?	-8	0	0	0	0	0	0
19	2023-04-20	09:19:42	09:35:01	09:35:01:482	44	1	PracticeItems_Think	fixation	0	5	1500	0	0	1	1495	1	+	-8	0	0	0	0	0	0
19	2023-04-20	09:19:42	09:35:06	09:35:06:499	44	2	PracticeItems_Think	PracticeItems_Think	0	5	0	0	0	0	5000	1	+	-16	2	Cue38.jpg	-16	2	Target38.jpg	-16
19	2023-04-20	09:19:42	09:35:07	09:35:07:864	44	3	PracticeItems_Think	valence	0	5	0	0	50	0	1337	1	I found these images to be...	-16	0	0	0	0	0	0
19	2023-04-20	09:19:42	09:35:11	09:35:11:997	44	4	PracticeItems_Think	expectancy	0	1500	0	0	32	0	3065	1	When you saw the <b>object-scene</b>,   to what <b>degree (0-100%)</b> did you expect the <b>unpleasant sound to occur</b>?	0	0	0	0	0	0	0
19	2023-04-20	09:19:42	09:35:13	09:35:13:983	45	1	Reminder_Baseline_CSp	fixation	0	5	500	0	0	1	495	1	+	-8	0	0	0	0	0	0
19	2023-04-20	09:19:42	09:35:18	09:35:18:00	45	2	Reminder_Baseline_CSp	Baseline_CSp	0	5	0	0	0	0	5000	1	+	-16	3	Cue19.jpg	-16	3	Target19.jpg	-16
19	2023-04-20	09:19:42	09:35:21	09:35:21:764	45	3	Reminder_Baseline_CSp	valence	0	5	0	0	50	0	3716	1	I found these images to be...	-16	0	0	0	0	0	0
19	2023-04-20	09:19:42	09:35:23	09:35:23:747	45	4	Reminder_Baseline_CSp	expectancy	0	1000	0	0	46	0	1940	1	When you saw the <b>object-scene</b>,   to what <b>degree (0-100%)</b> did you expect the <b>unpleasant sound to occur</b>?	-7	0	0	0	0	0	0
19	2023-04-20	09:19:42	09:35:25	09:35:25:750	46	1	Reminder_Think_CSp	fixation	0	5	1000	0	0	1	995	1	+	-9	0	0	0	0	0	0
19	2023-04-20	09:19:42	09:35:30	09:35:30:767	46	2	Reminder_Think_CSp	Think_CSp	0	5	0	0	0	0	5000	1	+	-16	4	Cue24.jpg	-16	4	Target24.jpg	-16
19	2023-04-20	09:19:42	09:35:33	09:35:33:265	46	3	Reminder_Think_CSp	valence	0	5	0	0	51	0	2444	1	I found these images to be...	-16	0	0	0	0	0	0
19	2023-04-20	09:19:42	09:35:37	09:35:37:519	46	4	Reminder_Think_CSp	expectancy	0	1500	0	0	27	0	4175	1	When you saw the <b>object-scene</b>,   to what <b>degree (0-100%)</b> did you expect the <b>unpleasant sound to occur</b>?	-8	0	0	0	0	0	0
19	2023-04-20	09:19:42	09:35:40	09:35:40:01	47	1	Reminder_NoThink_CSp	fixation	0	5	1000	0	0	1	995	1	+	-8	0	0	0	0	0	0
19	2023-04-20	09:19:42	09:35:45	09:35:45:018	47	2	Reminder_NoThink_CSp	NoThink_CSp	0	5	0	0	0	0	5000	1	+	-16	2	Cue25.jpg	-16	2	Target25.jpg	-16
19	2023-04-20	09:19:42	09:35:46	09:35:46:250	47	3	Reminder_NoThink_CSp	valence	0	5	0	0	50	0	1202	1	I found these images to be...	-16	0	0	0	0	0	0
19	2023-04-20	09:19:42	09:35:56	09:35:56:967	47	4	Reminder_NoThink_CSp	expectancy	0	1000	0	0	40	0	9672	1	When you saw the <b>object-scene</b>,   to what <b>degree (0-100%)</b> did you expect the <b>unpleasant sound to occur</b>?	1	0	0	0	0	0	0
19	2023-04-20	09:19:42	09:35:57	09:35:57:467	48	1	Reminder_NoThink_CSp	fixation	0	5	500	0	0	1	495	1	+	-15	0	0	0	0	0	0
19	2023-04-20	09:19:42	09:36:02	09:36:02:483	48	2	Reminder_NoThink_CSp	NoThink_CSp	0	5	0	0	0	0	5000	1	+	-16	6	Cue15.jpg	-16	6	Target15.jpg	-16
19	2023-04-20	09:19:42	09:36:04	09:36:04:218	48	3	Reminder_NoThink_CSp	valence	0	5	0	0	50	0	1702	1	I found these images to be...	-16	0	0	0	0	0	0
19	2023-04-20	09:19:42	09:36:13	09:36:13:468	48	4	Reminder_NoThink_CSp	expectancy	0	500	0	0	70	0	9216	1	When you saw the <b>object-scene</b>,   to what <b>degree (0-100%)</b> did you expect the <b>unpleasant sound to occur</b>?	-10	0	0	0	0	0	0
19	2023-04-20	09:19:42	09:36:15	09:36:15:467	49	1	Reminder_NoThink_CSm	fixation	0	5	1500	0	0	1	1495	1	+	-14	0	0	0	0	0	0
19	2023-04-20	09:19:42	09:36:20	09:36:20:484	49	2	Reminder_NoThink_CSm	NoThink_CSm	0	5	0	0	0	0	5000	1	+	-14	6	Cue23.jpg	-14	6	Target23.jpg	-14
19	2023-04-20	09:19:42	09:36:21	09:36:21:635	49	3	Reminder_NoThink_CSm	valence	0	5	0	0	50	0	1117	1	I found these images to be...	-16	0	0	0	0	0	0
19	2023-04-20	09:19:42	09:36:30	09:36:30:985	49	4	Reminder_NoThink_CSm	expectancy	0	500	0	0	54	0	8302	1	When you saw the <b>object-scene</b>,   to what <b>degree (0-100%)</b> did you expect the <b>unpleasant sound to occur</b>?	-12	0	0	0	0	0	0
19	2023-04-20	09:19:42	09:40:28	09:40:28:02	2	1	Practice_Think	fixation	0	5	1000	0	0	1	995	1	+	-9	0	0	0	0	0	0
19	2023-04-20	09:19:42	09:40:29	09:40:29:014	2	2	Practice_Think	Think	0	5	0	0	0	0	1000	1	THINK	-16	0	0	0	0	0	0
19	2023-04-20	09:19:42	09:40:34	09:40:34:031	2	3	Practice_Think	ThinkCue	0	5	0	0	0	1	5000	1	Cue37.jpg	-16	0	0	0	0	0	0
19	2023-04-20	09:19:42	09:40:35	09:40:35:555	2	4	Practice_Think	Intrusion	0	1500	3000	0	0	0	1500	1	How <b>often</b> did you <b>think</b> about the <b>scene</b>?   <center><br><b>NEVER (1)    BRIEFLY (2)   OFTEN (3) </b>	-14	0	0	0	0	0	0
19	2023-04-20	09:19:42	09:40:38	09:40:38:535	3	1	Practice_Think	fixation	0	5	1500	0	0	1	1495	1	+	-8	0	0	0	0	0	0
19	2023-04-20	09:19:42	09:40:39	09:40:39:548	3	2	Practice_Think	Think	0	5	0	0	0	0	1000	1	THINK	-16	0	0	0	0	0	0
19	2023-04-20	09:19:42	09:40:44	09:40:44:565	3	3	Practice_Think	ThinkCue	0	5	0	0	0	1	5000	2	Cue38.jpg	-16	0	0	0	0	0	0
19	2023-04-20	09:19:42	09:40:46	09:40:46:571	3	4	Practice_Think	Intrusion	0	1000	3000	0	0	0	2000	1	How <b>often</b> did you <b>think</b> about the <b>scene</b>?   <center><br><b>NEVER (1)    BRIEFLY (2)   OFTEN (3) </b>	-16	0	0	0	0	0	0
19	2023-04-20	09:19:42	09:40:48	09:40:48:069	4	1	Practice_NoThink	fixation	0	5	500	0	0	1	495	1	+	-8	0	0	0	0	0	0
19	2023-04-20	09:19:42	09:40:49	09:40:49:082	4	2	Practice_NoThink	NoThink	0	5	0	0	0	0	1000	1	DON'T THINK	-16	0	0	0	0	0	0
19	2023-04-20	09:19:42	09:40:54	09:40:54:099	4	3	Practice_NoThink	NoThinkCue	0	5	0	0	0	1	5000	2	Cue40.jpg	-16	0	0	0	0	0	0
19	2023-04-20	09:19:42	09:40:56	09:40:56:606	4	4	Practice_NoThink	Intrusion	0	500	3000	0	0	0	2500	1	How <b>often</b> did you <b>think</b> about the <b>scene</b>?   <center><br><b>NEVER (1)    BRIEFLY (2)   OFTEN (3) </b>	-16	0	0	0	0	0	0
19	2023-04-20	09:19:42	09:40:57	09:40:57:603	5	1	Practice_NoThink	fixation	0	5	500	0	0	1	495	1	+	-8	0	0	0	0	0	0
19	2023-04-20	09:19:42	09:40:59	09:40:59:616	5	2	Practice_NoThink	NoThink	0	5	0	0	0	0	1000	1	DON'T THINK	-16	0	0	0	0	0	0
19	2023-04-20	09:19:42	09:41:04	09:41:04:633	5	3	Practice_NoThink	NoThinkCue	0	5	0	0	0	1	5000	1	Cue39.jpg	-16	0	0	0	0	0	0
19	2023-04-20	09:19:42	09:41:04	09:41:04:269	5	4	Practice_NoThink	Intrusion	0	500	3000	0	81	1	618	1	How <b>often</b> did you <b>think</b> about the <b>scene</b>?   <center><br><b>NEVER (1)    BRIEFLY (2)   OFTEN (3) </b>	-16	0	0	0	0	0	0
19	2023-04-20	09:19:42	09:44:17	09:44:17:973	6	1	Practice_Betweenblocks1	Practice_Betweenblocks1	0	5	0	0	57	1	190306	1	<center><br><br><br><br>This is the end of the first practice round. <br><br>There will be 2 more practice rounds.  <br><br> Please await further instruction from the experimenter.	-16	0	0	0	0	0	0
19	2023-04-20	09:19:42	09:44:18	09:44:18:974	7	1	Practice_Think	fixation	0	5	1000	0	0	1	995	1	+	-8	0	0	0	0	0	0
19	2023-04-20	09:19:42	09:44:19	09:44:19:994	7	2	Practice_Think	Think	0	5	0	0	0	0	1000	1	THINK	-8	0	0	0	0	0	0
19	2023-04-20	09:19:42	09:44:24	09:44:24:011	7	3	Practice_Think	ThinkCue	0	5	0	0	0	1	5000	1	Cue37.jpg	-16	0	0	0	0	0	0
19	2023-04-20	09:19:42	09:44:25	09:44:25:701	7	4	Practice_Think	Intrusion	0	1500	3000	0	81	1	672	1	How <b>often</b> did you <b>think</b> about the <b>scene</b>?   <center><br><b>NEVER (1)    BRIEFLY (2)   OFTEN (3) </b>	-16	0	0	0	0	0	0
19	2023-04-20	09:19:42	09:44:28	09:44:28:515	8	1	Practice_NoThink	fixation	0	5	1500	0	0	1	1495	1	+	-5	0	0	0	0	0	0
19	2023-04-20	09:19:42	09:44:29	09:44:29:529	8	2	Practice_NoThink	NoThink	0	5	0	0	0	0	1000	1	DON'T THINK	-16	0	0	0	0	0	0
19	2023-04-20	09:19:42	09:44:34	09:44:34:545	8	3	Practice_NoThink	NoThinkCue	0	5	0	0	0	1	5000	2	Cue40.jpg	-16	0	0	0	0	0	0
19	2023-04-20	09:19:42	09:44:36	09:44:36:301	8	4	Practice_NoThink	Intrusion	0	1000	3000	0	80	1	1738	1	How <b>often</b> did you <b>think</b> about the <b>scene</b>?   <center><br><b>NEVER (1)    BRIEFLY (2)   OFTEN (3) </b>	-16	0	0	0	0	0	0
19	2023-04-20	09:19:42	09:44:38	09:44:38:049	9	1	Practice_Think	fixation	0	5	500	0	0	1	495	1	+	-8	0	0	0	0	0	0
19	2023-04-20	09:19:42	09:44:39	09:44:39:062	9	2	Practice_Think	Think	0	5	0	0	0	0	1000	1	THINK	-16	0	0	0	0	0	0
19	2023-04-20	09:19:42	09:44:44	09:44:44:079	9	3	Practice_Think	ThinkCue	0	5	0	0	0	1	5000	2	Cue38.jpg	-16	0	0	0	0	0	0
19	2023-04-20	09:19:42	09:44:45	09:44:45:04	9	4	Practice_Think	Intrusion	0	500	3000	0	81	1	908	1	How <b>often</b> did you <b>think</b> about the <b>scene</b>?   <center><br><b>NEVER (1)    BRIEFLY (2)   OFTEN (3) </b>	-16	0	0	0	0	0	0
19	2023-04-20	09:19:42	09:44:48	09:44:48:083	10	1	Practice_NoThink	fixation	0	5	1000	0	0	1	995	1	+	-9	0	0	0	0	0	0
19	2023-04-20	09:19:42	09:44:49	09:44:49:096	10	2	Practice_NoThink	NoThink	0	5	0	0	0	0	1000	1	DON'T THINK	-16	0	0	0	0	0	0
19	2023-04-20	09:19:42	09:44:54	09:44:54:113	10	3	Practice_NoThink	NoThinkCue	0	5	0	0	0	1	5000	1	Cue39.jpg	-16	0	0	0	0	0	0
19	2023-04-20	09:19:42	09:44:55	09:44:55:357	10	4	Practice_NoThink	Intrusion	0	1500	3000	0	79	1	1226	1	How <b>often</b> did you <b>think</b> about the <b>scene</b>?   <center><br><b>NEVER (1)    BRIEFLY (2)   OFTEN (3) </b>	-16	0	0	0	0	0	0
19	2023-04-20	09:19:42	09:46:06	09:46:06:140	11	1	Practice_Betweenblocks2	Practice_Betweenblocks2	0	5	0	0	57	1	68977	1	<center><br><br><br><br>This is the end of the second practice round. <br><br>There will be 1 more practice round.  <br><br> Please await further instruction from the experimenter.	-3	0	0	0	0	0	0
19	2023-04-20	09:19:42	09:46:08	09:46:08:642	12	1	Practice_Think	fixation	0	5	1500	0	0	1	1495	1	+	-5	0	0	0	0	0	0
19	2023-04-20	09:19:42	09:46:09	09:46:09:650	12	2	Practice_Think	Think	0	5	0	0	0	0	1000	1	THINK	-16	0	0	0	0	0	0
19	2023-04-20	09:19:42	09:46:14	09:46:14:668	12	3	Practice_Think	ThinkCue	0	5	0	0	0	1	5000	1	Cue37.jpg	-16	0	0	0	0	0	0
19	2023-04-20	09:19:42	09:46:15	09:46:15:924	12	4	Practice_Think	Intrusion	0	1000	3000	0	81	1	1240	1	How <b>often</b> did you <b>think</b> about the <b>scene</b>?   <center><br><b>NEVER (1)    BRIEFLY (2)   OFTEN (3) </b>	-16	0	0	0	0	0	0
19	2023-04-20	09:19:42	09:46:18	09:46:18:172	13	1	Practice_NoThink	fixation	0	5	1500	0	0	1	1495	1	+	-8	0	0	0	0	0	0
19	2023-04-20	09:19:42	09:46:19	09:46:19:185	13	2	Practice_NoThink	NoThink	0	5	0	0	0	0	1000	1	DON'T THINK	-16	0	0	0	0	0	0
19	2023-04-20	09:19:42	09:46:24	09:46:24:201	13	3	Practice_NoThink	NoThinkCue	0	5	0	0	0	1	5000	2	Cue40.jpg	-16	0	0	0	0	0	0
19	2023-04-20	09:19:42	09:46:26	09:46:26:644	13	4	Practice_NoThink	Intrusion	0	1500	3000	0	79	1	1426	1	How <b>often</b> did you <b>think</b> about the <b>scene</b>?   <center><br><b>NEVER (1)    BRIEFLY (2)   OFTEN (3) </b>	-16	0	0	0	0	0	0
19	2023-04-20	09:19:42	09:46:28	09:46:28:206	14	1	Practice_NoThink	fixation	0	5	1000	0	0	1	995	1	+	-16	0	0	0	0	0	0
19	2023-04-20	09:19:42	09:46:29	09:46:29:219	14	2	Practice_NoThink	NoThink	0	5	0	0	0	0	1000	1	DON'T THINK	-16	0	0	0	0	0	0
19	2023-04-20	09:19:42	09:46:34	09:46:34:236	14	3	Practice_NoThink	NoThinkCue	0	5	0	0	0	1	5000	1	Cue39.jpg	-16	0	0	0	0	0	0
19	2023-04-20	09:19:42	09:46:36	09:46:36:740	14	4	Practice_NoThink	Intrusion	0	1000	3000	0	80	1	1488	1	How <b>often</b> did you <b>think</b> about the <b>scene</b>?   <center><br><b>NEVER (1)    BRIEFLY (2)   OFTEN (3) </b>	-16	0	0	0	0	0	0
19	2023-04-20	09:19:42	09:46:38	09:46:38:740	15	1	Practice_Think	fixation	0	5	500	0	0	1	495	1	+	-16	0	0	0	0	0	0
19	2023-04-20	09:19:42	09:46:39	09:46:39:753	15	2	Practice_Think	Think	0	5	0	0	0	0	1000	1	THINK	-16	0	0	0	0	0	0
19	2023-04-20	09:19:42	09:46:44	09:46:44:769	15	3	Practice_Think	ThinkCue	0	5	0	0	0	1	5000	2	Cue38.jpg	-16	0	0	0	0	0	0
19	2023-04-20	09:19:42	09:46:44	09:46:44:524	15	4	Practice_Think	Intrusion	0	500	3000	0	81	1	738	1	How <b>often</b> did you <b>think</b> about the <b>scene</b>?   <center><br><b>NEVER (1)    BRIEFLY (2)   OFTEN (3) </b>	-16	0	0	0	0	0	0
19	2023-04-20	09:19:42	09:47:31	09:47:31:356	1	1	countdown	instructions	0	5	0	0	57	0	4367	1	<center><br><br> <b>WATCH CALLIBRATION</b>.                <br><br><br><br>In a couple of seconds a <b>countdown</b> will start that counts down from 3 to 1,       <br><br>after which the screen will show the instruction <b>PRESS BUTTON</b>.       <br><br><b>As soon as you see that screen</b>, you must shortly press the button on your watch.       <br><br> <br><br> Press SPACE  to continue.	0	0	0	0	0	0	0
19	2023-04-20	09:19:42	09:47:32	09:47:32:372	1	2	countdown	countdown_3	0	5	0	0	0	0	1000	1	3	-16	0	0	0	0	0	0
19	2023-04-20	09:19:42	09:47:33	09:47:33:389	1	3	countdown	countdown_2	0	5	0	0	0	0	1000	1	2	-16	0	0	0	0	0	0
19	2023-04-20	09:19:42	09:47:34	09:47:34:406	1	4	countdown	countdown_1	0	5	0	0	0	0	1000	1	1	-16	0	0	0	0	0	0
19	2023-04-20	09:19:42	09:47:35	09:47:35:422	1	5	countdown	press_button	0	5	0	0	0	0	1000	1	PRESS BUTTON NOW	-16	0	0	0	0	0	0
19	2023-04-20	09:19:42	09:48:05	09:48:05:501	2	1	TNT_Object_CSm	fixation	0	5	1500	0	0	1	1495	1	+	-9	0	0	0	0	0	0
19	2023-04-20	09:19:42	09:48:06	09:48:06:519	2	2	TNT_Object_CSm	Passive	0	5	0	0	0	0	1000	1	VIEW	-16	0	0	0	0	0	0
19	2023-04-20	09:19:42	09:48:12	09:48:12:536	2	3	TNT_Object_CSm	TNT_Object_CSm	0	1000	0	0	0	0	5000	4	Object8.jpg	-16	0	0	0	0	0	0
19	2023-04-20	09:19:42	09:48:14	09:48:14:535	3	1	TNT_NoThink_CSp	fixation	0	5	1000	0	0	1	995	1	+	-9	0	0	0	0	0	0
19	2023-04-20	09:19:42	09:48:15	09:48:15:552	3	2	TNT_NoThink_CSp	NoThink	0	5	0	0	0	0	1000	1	DON'T THINK	-16	0	0	0	0	0	0
19	2023-04-20	09:19:42	09:48:20	09:48:20:569	3	3	TNT_NoThink_CSp	TNT_NoThink_CSp	0	5	0	0	0	0	5000	2	Cue25.jpg	-16	0	0	0	0	0	0
19	2023-04-20	09:19:42	09:48:20	09:48:20:387	3	4	TNT_NoThink_CSp	Intrusion	0	1000	3000	0	79	1	801	1	How <b>often</b> did you <b>think</b> about the <b>scene</b>?   <center><br><b>NEVER (1)    BRIEFLY (2)   OFTEN (3) </b>	-16	0	0	0	0	0	0
19	2023-04-20	09:19:42	09:48:23	09:48:23:073	4	1	TNT_Object_CSm	fixation	0	5	500	0	0	1	495	1	+	-9	0	0	0	0	0	0
19	2023-04-20	09:19:42	09:48:24	09:48:24:086	4	2	TNT_Object_CSm	Passive	0	5	0	0	0	0	1000	1	VIEW	-16	0	0	0	0	0	0
19	2023-04-20	09:19:42	09:48:29	09:48:29:103	4	3	TNT_Object_CSm	TNT_Object_CSm	0	1500	0	0	0	0	5000	1	Object3.jpg	-16	0	0	0	0	0	0
19	2023-04-20	09:19:42	09:48:31	09:48:31:103	5	1	TNT_Think_CSp	fixation	0	5	500	0	0	1	495	1	+	-9	0	0	0	0	0	0
19	2023-04-20	09:19:42	09:48:32	09:48:32:120	5	2	TNT_Think_CSp	Think	0	5	0	0	0	0	1000	1	THINK	-16	0	0	0	0	0	0
19	2023-04-20	09:19:42	09:48:37	09:48:37:137	5	3	TNT_Think_CSp	TNT_Think_CSp	0	5	0	0	0	0	5000	3	Cue2.jpg	-16	0	0	0	0	0	0
19	2023-04-20	09:19:42	09:48:39	09:48:39:315	5	4	TNT_Think_CSp	Intrusion	0	500	3000	0	81	1	2161	1	How <b>often</b> did you <b>think</b> about the <b>scene</b>?   <center><br><b>NEVER (1)    BRIEFLY (2)   OFTEN (3) </b>	-16	0	0	0	0	0	0
19	2023-04-20	09:19:42	09:48:41	09:48:41:141	6	1	TNT_Object_CSp	fixation	0	5	1000	0	0	1	995	1	+	-8	0	0	0	0	0	0
19	2023-04-20	09:19:42	09:48:42	09:48:42:154	6	2	TNT_Object_CSp	Passive	0	5	0	0	0	0	1000	1	VIEW	-16	0	0	0	0	0	0
19	2023-04-20	09:19:42	09:48:47	09:48:47:171	6	3	TNT_Object_CSp	TNT_Object_CSp	0	1000	0	0	0	0	5000	3	Object6.jpg	-16	0	0	0	0	0	0
19	2023-04-20	09:19:42	09:48:50	09:48:50:670	7	1	TNT_NoThink_CSm	fixation	0	5	1500	0	0	1	1495	1	+	-8	0	0	0	0	0	0
19	2023-04-20	09:19:42	09:48:51	09:48:51:688	7	2	TNT_NoThink_CSm	NoThink	0	5	0	0	0	0	1000	1	DON'T THINK	-16	0	0	0	0	0	0
19	2023-04-20	09:19:42	09:48:56	09:48:56:705	7	3	TNT_NoThink_CSm	TNT_NoThink_CSm	0	5	0	0	0	0	5000	6	Cue23.jpg	-16	0	0	0	0	0	0
19	2023-04-20	09:19:42	09:48:56	09:48:56:387	7	4	TNT_NoThink_CSm	Intrusion	0	1500	3000	0	80	1	666	1	How <b>often</b> did you <b>think</b> about the <b>scene</b>?   <center><br><b>NEVER (1)    BRIEFLY (2)   OFTEN (3) </b>	-16	0	0	0	0	0	0
19	2023-04-20	09:19:42	09:49:00	09:49:00:209	8	1	TNT_NoThink_CSm	fixation	0	5	1500	0	0	1	1495	1	+	-9	0	0	0	0	0	0
19	2023-04-20	09:19:42	09:49:01	09:49:01:222	8	2	TNT_NoThink_CSm	NoThink	0	5	0	0	0	0	1000	1	DON'T THINK	-16	0	0	0	0	0	0
19	2023-04-20	09:19:42	09:49:06	09:49:06:239	8	3	TNT_NoThink_CSm	TNT_NoThink_CSm	0	5	0	0	0	0	5000	2	Cue33.jpg	-16	0	0	0	0	0	0
19	2023-04-20	09:19:42	09:49:08	09:49:08:731	8	4	TNT_NoThink_CSm	Intrusion	0	500	3000	0	79	1	1475	1	How <b>often</b> did you <b>think</b> about the <b>scene</b>?   <center><br><b>NEVER (1)    BRIEFLY (2)   OFTEN (3) </b>	-16	0	0	0	0	0	0
19	2023-04-20	09:19:42	09:49:10	09:49:10:743	9	1	TNT_Object_CSm	fixation	0	5	500	0	0	1	495	1	+	-16	0	0	0	0	0	0
19	2023-04-20	09:19:42	09:49:11	09:49:11:756	9	2	TNT_Object_CSm	Passive	0	5	0	0	0	0	1000	1	VIEW	-16	0	0	0	0	0	0
19	2023-04-20	09:19:42	09:49:16	09:49:16:773	9	3	TNT_Object_CSm	TNT_Object_CSm	0	500	0	0	0	0	5000	2	Object5.jpg	-16	0	0	0	0	0	0
19	2023-04-20	09:19:42	09:49:17	09:49:17:272	10	1	TNT_NoThink_CSp	fixation	0	5	1000	0	0	1	995	1	+	-8	0	0	0	0	0	0
19	2023-04-20	09:19:42	09:49:18	09:49:18:290	10	2	TNT_NoThink_CSp	NoThink	0	5	0	0	0	0	1000	1	DON'T THINK	-16	0	0	0	0	0	0
19	2023-04-20	09:19:42	09:49:23	09:49:23:306	10	3	TNT_NoThink_CSp	TNT_NoThink_CSp	0	5	0	0	0	0	5000	3	Cue9.jpg	-16	0	0	0	0	0	0
19	2023-04-20	09:19:42	09:49:24	09:49:24:403	10	4	TNT_NoThink_CSp	Intrusion	0	1500	3000	0	80	1	1080	1	How <b>often</b> did you <b>think</b> about the <b>scene</b>?   <center><br><b>NEVER (1)    BRIEFLY (2)   OFTEN (3) </b>	-16	0	0	0	0	0	0
19	2023-04-20	09:19:42	09:49:27	09:49:27:311	11	1	TNT_Think_CSm	fixation	0	5	1000	0	0	1	995	1	+	-16	0	0	0	0	0	0
19	2023-04-20	09:19:42	09:49:28	09:49:28:323	11	2	TNT_Think_CSm	Think	0	5	0	0	0	0	1000	1	THINK	-16	0	0	0	0	0	0
19	2023-04-20	09:19:42	09:49:33	09:49:33:340	11	3	TNT_Think_CSm	TNT_Think_CSm	0	5	0	0	0	0	5000	5	Cue5.jpg	-16	0	0	0	0	0	0
19	2023-04-20	09:19:42	09:49:35	09:49:35:011	11	4	TNT_Think_CSm	Intrusion	0	1000	3000	0	80	1	1653	1	How <b>often</b> did you <b>think</b> about the <b>scene</b>?   <center><br><b>NEVER (1)    BRIEFLY (2)   OFTEN (3) </b>	-16	0	0	0	0	0	0
19	2023-04-20	09:19:42	09:49:38	09:49:38:844	12	1	TNT_Think_CSp	fixation	0	5	1500	0	0	1	1495	1	+	-9	0	0	0	0	0	0
19	2023-04-20	09:19:42	09:49:39	09:49:39:857	12	2	TNT_Think_CSp	Think	0	5	0	0	0	0	1000	1	THINK	-16	0	0	0	0	0	0
19	2023-04-20	09:19:42	09:49:44	09:49:44:874	12	3	TNT_Think_CSp	TNT_Think_CSp	0	5	0	0	0	0	5000	5	Cue32.jpg	-16	0	0	0	0	0	0
19	2023-04-20	09:19:42	09:49:45	09:49:45:507	12	4	TNT_Think_CSp	Intrusion	0	500	3000	0	81	1	1616	1	How <b>often</b> did you <b>think</b> about the <b>scene</b>?   <center><br><b>NEVER (1)    BRIEFLY (2)   OFTEN (3) </b>	-16	0	0	0	0	0	0
19	2023-04-20	09:19:42	09:49:47	09:49:47:378	13	1	TNT_Object_CSp	fixation	0	5	500	0	0	1	495	1	+	-9	0	0	0	0	0	0
19	2023-04-20	09:19:42	09:49:48	09:49:48:391	13	2	TNT_Object_CSp	Passive	0	5	0	0	0	0	1000	1	VIEW	-16	0	0	0	0	0	0
19	2023-04-20	09:19:42	09:49:53	09:49:53:408	13	3	TNT_Object_CSp	TNT_Object_CSp	0	1500	0	0	0	0	5000	2	Object2.jpg	-16	0	0	0	0	0	0
19	2023-04-20	09:19:42	09:49:55	09:49:55:407	14	1	TNT_NoThink_CSm	fixation	0	5	500	0	0	1	495	1	+	-8	0	0	0	0	0	0
19	2023-04-20	09:19:42	09:49:56	09:49:56:425	14	2	TNT_NoThink_CSm	NoThink	0	5	0	0	0	0	1000	1	DON'T THINK	-16	0	0	0	0	0	0
19	2023-04-20	09:19:42	09:50:01	09:50:01:442	14	3	TNT_NoThink_CSm	TNT_NoThink_CSm	0	5	0	0	0	0	5000	3	Cue10.jpg	-16	0	0	0	0	0	0
19	2023-04-20	09:19:42	09:50:02	09:50:02:403	14	4	TNT_NoThink_CSm	Intrusion	0	1500	3000	0	79	1	944	1	How <b>often</b> did you <b>think</b> about the <b>scene</b>?   <center><br><b>NEVER (1)    BRIEFLY (2)   OFTEN (3) </b>	-16	0	0	0	0	0	0
19	2023-04-20	09:19:42	09:50:05	09:50:05:446	15	1	TNT_NoThink_CSm	fixation	0	5	1000	0	0	1	995	1	+	-8	0	0	0	0	0	0
19	2023-04-20	09:19:42	09:50:06	09:50:06:459	15	2	TNT_NoThink_CSm	NoThink	0	5	0	0	0	0	1000	1	DON'T THINK	-16	0	0	0	0	0	0
19	2023-04-20	09:19:42	09:50:11	09:50:11:476	15	3	TNT_NoThink_CSm	TNT_NoThink_CSm	0	5	0	0	0	0	5000	4	Cue4.jpg	-16	0	0	0	0	0	0
19	2023-04-20	09:19:42	09:50:12	09:50:12:03	15	4	TNT_NoThink_CSm	Intrusion	0	1000	3000	0	80	1	509	1	How <b>often</b> did you <b>think</b> about the <b>scene</b>?   <center><br><b>NEVER (1)    BRIEFLY (2)   OFTEN (3) </b>	-16	0	0	0	0	0	0
19	2023-04-20	09:19:42	09:50:16	09:50:16:979	16	1	TNT_Think_CSp	fixation	0	5	1500	0	0	1	1495	1	+	-8	0	0	0	0	0	0
19	2023-04-20	09:19:42	09:50:17	09:50:17:993	16	2	TNT_Think_CSp	Think	0	5	0	0	0	0	1000	1	THINK	-16	0	0	0	0	0	0
19	2023-04-20	09:19:42	09:50:22	09:50:22:010	16	3	TNT_Think_CSp	TNT_Think_CSp	0	5	0	0	0	0	5000	4	Cue24.jpg	-16	0	0	0	0	0	0
19	2023-04-20	09:19:42	09:50:24	09:50:24:651	16	4	TNT_Think_CSp	Intrusion	0	500	3000	0	81	1	1624	1	How <b>often</b> did you <b>think</b> about the <b>scene</b>?   <center><br><b>NEVER (1)    BRIEFLY (2)   OFTEN (3) </b>	-16	0	0	0	0	0	0
19	2023-04-20	09:19:42	09:50:26	09:50:26:513	17	1	TNT_Think_CSm	fixation	0	5	1500	0	0	1	1495	1	+	-9	0	0	0	0	0	0
19	2023-04-20	09:19:42	09:50:28	09:50:28:527	17	2	TNT_Think_CSm	Think	0	5	0	0	0	0	1000	1	THINK	-16	0	0	0	0	0	0
19	2023-04-20	09:19:42	09:50:33	09:50:33:544	17	3	TNT_Think_CSm	TNT_Think_CSm	0	5	0	0	0	0	5000	6	Cue16.jpg	-16	0	0	0	0	0	0
19	2023-04-20	09:19:42	09:50:34	09:50:34:291	17	4	TNT_Think_CSm	Intrusion	0	1000	3000	0	81	1	1729	1	How <b>often</b> did you <b>think</b> about the <b>scene</b>?   <center><br><b>NEVER (1)    BRIEFLY (2)   OFTEN (3) </b>	-16	0	0	0	0	0	0
19	2023-04-20	09:19:42	09:50:37	09:50:37:547	18	1	TNT_Think_CSm	fixation	0	5	1000	0	0	1	995	1	+	-1	0	0	0	0	0	0
19	2023-04-20	09:19:42	09:50:38	09:50:38:561	18	2	TNT_Think_CSm	Think	0	5	0	0	0	0	1000	1	THINK	-16	0	0	0	0	0	0
19	2023-04-20	09:19:42	09:50:43	09:50:43:578	18	3	TNT_Think_CSm	TNT_Think_CSm	0	5	0	0	0	0	5000	2	Cue29.jpg	-16	0	0	0	0	0	0
19	2023-04-20	09:19:42	09:50:44	09:50:44:086	18	4	TNT_Think_CSm	Intrusion	0	1500	3000	0	0	0	1500	1	How <b>often</b> did you <b>think</b> about the <b>scene</b>?   <center><br><b>NEVER (1)    BRIEFLY (2)   OFTEN (3) </b>	-16	0	0	0	0	0	0
19	2023-04-20	09:19:42	09:50:46	09:50:46:081	19	1	TNT_NoThink_CSp	fixation	0	5	500	0	0	1	495	1	+	-9	0	0	0	0	0	0
19	2023-04-20	09:19:42	09:50:47	09:50:47:095	19	2	TNT_NoThink_CSp	NoThink	0	5	0	0	0	0	1000	1	DON'T THINK	-16	0	0	0	0	0	0
19	2023-04-20	09:19:42	09:50:52	09:50:52:112	19	3	TNT_NoThink_CSp	TNT_NoThink_CSp	0	5	0	0	0	0	5000	4	Cue8.jpg	-16	0	0	0	0	0	0
19	2023-04-20	09:19:42	09:50:53	09:50:53:691	19	4	TNT_NoThink_CSp	Intrusion	0	1500	3000	0	80	1	562	1	How <b>often</b> did you <b>think</b> about the <b>scene</b>?   <center><br><b>NEVER (1)    BRIEFLY (2)   OFTEN (3) </b>	-16	0	0	0	0	0	0
19	2023-04-20	09:19:42	09:50:56	09:50:56:116	20	1	TNT_Think_CSp	fixation	0	5	1000	0	0	1	995	1	+	-8	0	0	0	0	0	0
19	2023-04-20	09:19:42	09:50:57	09:50:57:129	20	2	TNT_Think_CSp	Think	0	5	0	0	0	0	1000	1	THINK	-16	0	0	0	0	0	0
19	2023-04-20	09:19:42	09:51:02	09:51:02:146	20	3	TNT_Think_CSp	TNT_Think_CSp	0	5	0	0	0	0	5000	2	Cue6.jpg	-16	0	0	0	0	0	0
19	2023-04-20	09:19:42	09:51:03	09:51:03:947	20	4	TNT_Think_CSp	Intrusion	0	500	3000	0	81	1	784	1	How <b>often</b> did you <b>think</b> about the <b>scene</b>?   <center><br><b>NEVER (1)    BRIEFLY (2)   OFTEN (3) </b>	-16	0	0	0	0	0	0
19	2023-04-20	09:19:42	09:51:07	09:51:07:650	21	1	TNT_NoThink_CSp	fixation	0	5	1500	0	0	1	1495	1	+	-16	0	0	0	0	0	0
19	2023-04-20	09:19:42	09:51:08	09:51:08:663	21	2	TNT_NoThink_CSp	NoThink	0	5	0	0	0	0	1000	1	DON'T THINK	-16	0	0	0	0	0	0
19	2023-04-20	09:19:42	09:51:13	09:51:13:680	21	3	TNT_NoThink_CSp	TNT_NoThink_CSp	0	5	0	0	0	0	5000	5	Cue18.jpg	-16	0	0	0	0	0	0
19	2023-04-20	09:19:42	09:51:13	09:51:13:299	21	4	TNT_NoThink_CSp	Intrusion	0	1000	3000	0	80	1	602	1	How <b>often</b> did you <b>think</b> about the <b>scene</b>?   <center><br><b>NEVER (1)    BRIEFLY (2)   OFTEN (3) </b>	-16	0	0	0	0	0	0
19	2023-04-20	09:19:42	09:51:16	09:51:16:184	22	1	TNT_NoThink_CSp	fixation	0	5	500	0	0	1	495	1	+	-16	0	0	0	0	0	0
19	2023-04-20	09:19:42	09:51:17	09:51:17:197	22	2	TNT_NoThink_CSp	NoThink	0	5	0	0	0	0	1000	1	DON'T THINK	-16	0	0	0	0	0	0
19	2023-04-20	09:19:42	09:51:22	09:51:22:214	22	3	TNT_NoThink_CSp	TNT_NoThink_CSp	0	5	0	0	0	0	5000	6	Cue15.jpg	-16	0	0	0	0	0	0
19	2023-04-20	09:19:42	09:51:23	09:51:23:963	22	4	TNT_NoThink_CSp	Intrusion	0	500	3000	0	79	1	732	1	How <b>often</b> did you <b>think</b> about the <b>scene</b>?   <center><br><b>NEVER (1)    BRIEFLY (2)   OFTEN (3) </b>	-16	0	0	0	0	0	0
19	2023-04-20	09:19:42	09:51:27	09:51:27:718	23	1	TNT_Think_CSm	fixation	0	5	1500	0	0	1	1495	1	+	-16	0	0	0	0	0	0
19	2023-04-20	09:19:42	09:51:28	09:51:28:731	23	2	TNT_Think_CSm	Think	0	5	0	0	0	0	1000	1	THINK	-16	0	0	0	0	0	0
19	2023-04-20	09:19:42	09:51:33	09:51:33:747	23	3	TNT_Think_CSm	TNT_Think_CSm	0	5	0	0	0	0	5000	1	Cue22.jpg	-16	0	0	0	0	0	0
19	2023-04-20	09:19:42	09:51:33	09:51:33:507	23	4	TNT_Think_CSm	Intrusion	0	1500	3000	0	81	1	742	1	How <b>often</b> did you <b>think</b> about the <b>scene</b>?   <center><br><b>NEVER (1)    BRIEFLY (2)   OFTEN (3) </b>	-16	0	0	0	0	0	0
19	2023-04-20	09:19:42	09:51:37	09:51:37:751	24	1	TNT_Think_CSm	fixation	0	5	1000	0	0	1	995	1	+	-8	0	0	0	0	0	0
19	2023-04-20	09:19:42	09:51:38	09:51:38:764	24	2	TNT_Think_CSm	Think	0	5	0	0	0	0	1000	1	THINK	-16	0	0	0	0	0	0
19	2023-04-20	09:19:42	09:51:43	09:51:43:781	24	3	TNT_Think_CSm	TNT_Think_CSm	0	5	0	0	0	0	5000	3	Cue17.jpg	-16	0	0	0	0	0	0
19	2023-04-20	09:19:42	09:51:44	09:51:44:667	24	4	TNT_Think_CSm	Intrusion	0	1000	3000	0	81	1	868	1	How <b>often</b> did you <b>think</b> about the <b>scene</b>?   <center><br><b>NEVER (1)    BRIEFLY (2)   OFTEN (3) </b>	-16	0	0	0	0	0	0
19	2023-04-20	09:19:42	09:51:46	09:51:46:285	25	1	TNT_Think_CSp	fixation	0	5	500	0	0	1	495	1	+	-16	0	0	0	0	0	0
19	2023-04-20	09:19:42	09:51:47	09:51:47:298	25	2	TNT_Think_CSp	Think	0	5	0	0	0	0	1000	1	THINK	-16	0	0	0	0	0	0
19	2023-04-20	09:19:42	09:51:52	09:51:52:315	25	3	TNT_Think_CSp	TNT_Think_CSp	0	5	0	0	0	0	5000	1	Cue27.jpg	-16	0	0	0	0	0	0
19	2023-04-20	09:19:42	09:51:53	09:51:53:075	25	4	TNT_Think_CSp	Intrusion	0	1500	3000	0	81	1	742	1	How <b>often</b> did you <b>think</b> about the <b>scene</b>?   <center><br><b>NEVER (1)    BRIEFLY (2)   OFTEN (3) </b>	-16	0	0	0	0	0	0
19	2023-04-20	09:19:42	09:51:56	09:51:56:319	26	1	TNT_NoThink_CSm	fixation	0	5	1000	0	0	1	995	1	+	-8	0	0	0	0	0	0
19	2023-04-20	09:19:42	09:51:57	09:51:57:333	26	2	TNT_NoThink_CSm	NoThink	0	5	0	0	0	0	1000	1	DON'T THINK	-16	0	0	0	0	0	0
19	2023-04-20	09:19:42	09:52:02	09:52:02:349	26	3	TNT_NoThink_CSm	TNT_NoThink_CSm	0	5	0	0	0	0	5000	1	Cue11.jpg	-16	0	0	0	0	0	0
19	2023-04-20	09:19:42	09:52:03	09:52:03:507	26	4	TNT_NoThink_CSm	Intrusion	0	500	3000	0	79	1	1140	1	How <b>often</b> did you <b>think</b> about the <b>scene</b>?   <center><br><b>NEVER (1)    BRIEFLY (2)   OFTEN (3) </b>	-16	0	0	0	0	0	0
19	2023-04-20	09:19:42	09:52:06	09:52:06:853	27	1	TNT_NoThink_CSp	fixation	0	5	500	0	0	1	495	1	+	-8	0	0	0	0	0	0
19	2023-04-20	09:19:42	09:52:07	09:52:07:866	27	2	TNT_NoThink_CSp	NoThink	0	5	0	0	0	0	1000	1	DON'T THINK	-16	0	0	0	0	0	0
19	2023-04-20	09:19:42	09:52:12	09:52:12:883	27	3	TNT_NoThink_CSp	TNT_NoThink_CSp	0	5	0	0	0	0	5000	1	Cue30.jpg	-16	0	0	0	0	0	0
19	2023-04-20	09:19:42	09:52:13	09:52:13:691	27	4	TNT_NoThink_CSp	Intrusion	0	1000	3000	0	79	1	790	1	How <b>often</b> did you <b>think</b> about the <b>scene</b>?   <center><br><b>NEVER (1)    BRIEFLY (2)   OFTEN (3) </b>	-16	0	0	0	0	0	0
19	2023-04-20	09:19:42	09:52:16	09:52:16:386	28	1	TNT_Think_CSm	fixation	0	5	1500	0	0	1	1495	1	+	-8	0	0	0	0	0	0
19	2023-04-20	09:19:42	09:52:17	09:52:17:400	28	2	TNT_Think_CSm	Think	0	5	0	0	0	0	1000	1	THINK	-16	0	0	0	0	0	0
19	2023-04-20	09:19:42	09:52:22	09:52:22:417	28	3	TNT_Think_CSm	TNT_Think_CSm	0	5	0	0	0	0	5000	4	Cue34.jpg	-16	0	0	0	0	0	0
19	2023-04-20	09:19:42	09:52:25	09:52:25:627	28	4	TNT_Think_CSm	Intrusion	0	500	3000	0	81	1	2192	1	How <b>often</b> did you <b>think</b> about the <b>scene</b>?   <center><br><b>NEVER (1)    BRIEFLY (2)   OFTEN (3) </b>	-16	0	0	0	0	0	0
19	2023-04-20	09:19:42	09:52:26	09:52:26:921	29	1	TNT_Think_CSp	fixation	0	5	500	0	0	1	495	1	+	-9	0	0	0	0	0	0
19	2023-04-20	09:19:42	09:52:27	09:52:27:934	29	2	TNT_Think_CSp	Think	0	5	0	0	0	0	1000	1	THINK	-16	0	0	0	0	0	0
19	2023-04-20	09:19:42	09:52:32	09:52:32:951	29	3	TNT_Think_CSp	TNT_Think_CSp	0	5	0	0	0	0	5000	6	Cue14.jpg	-16	0	0	0	0	0	0
19	2023-04-20	09:19:42	09:52:34	09:52:34:939	29	4	TNT_Think_CSp	Intrusion	0	1000	3000	0	81	1	1970	1	How <b>often</b> did you <b>think</b> about the <b>scene</b>?   <center><br><b>NEVER (1)    BRIEFLY (2)   OFTEN (3) </b>	-16	0	0	0	0	0	0
19	2023-04-20	09:19:42	09:52:36	09:52:36:955	30	1	TNT_Object_CSp	fixation	0	5	1000	0	0	1	995	1	+	-8	0	0	0	0	0	0
19	2023-04-20	09:19:42	09:52:37	09:52:37:968	30	2	TNT_Object_CSp	Passive	0	5	0	0	0	0	1000	1	VIEW	-16	0	0	0	0	0	0
19	2023-04-20	09:19:42	09:52:42	09:52:42:985	30	3	TNT_Object_CSp	TNT_Object_CSp	0	500	0	0	0	0	5000	1	Object4.jpg	-16	0	0	0	0	0	0
19	2023-04-20	09:19:42	09:52:44	09:52:44:984	31	1	TNT_Object_CSp	fixation	0	5	1500	0	0	1	1495	1	+	-8	0	0	0	0	0	0
19	2023-04-20	09:19:42	09:52:45	09:52:45:02	31	2	TNT_Object_CSp	Passive	0	5	0	0	0	0	1000	1	VIEW	-16	0	0	0	0	0	0
19	2023-04-20	09:19:42	09:52:50	09:52:50:019	31	3	TNT_Object_CSp	TNT_Object_CSp	0	500	0	0	0	0	5000	4	Object7.jpg	-16	0	0	0	0	0	0
19	2023-04-20	09:19:42	09:52:51	09:52:51:518	32	1	TNT_NoThink_CSm	fixation	0	5	1000	0	0	1	995	1	+	-9	0	0	0	0	0	0
19	2023-04-20	09:19:42	09:52:53	09:52:53:536	32	2	TNT_NoThink_CSm	NoThink	0	5	0	0	0	0	1000	1	DON'T THINK	-16	0	0	0	0	0	0
19	2023-04-20	09:19:42	09:52:58	09:52:58:552	32	3	TNT_NoThink_CSm	TNT_NoThink_CSm	0	5	0	0	0	0	5000	5	Cue26.jpg	-16	0	0	0	0	0	0
19	2023-04-20	09:19:42	09:52:58	09:52:58:955	32	4	TNT_NoThink_CSm	Intrusion	0	1500	3000	0	80	1	385	1	How <b>often</b> did you <b>think</b> about the <b>scene</b>?   <center><br><b>NEVER (1)    BRIEFLY (2)   OFTEN (3) </b>	-16	0	0	0	0	0	0
19	2023-04-20	09:19:42	09:53:02	09:53:02:056	33	1	TNT_Object_CSm	fixation	0	5	1500	0	0	1	1495	1	+	-8	0	0	0	0	0	0
19	2023-04-20	09:19:42	09:53:03	09:53:03:069	33	2	TNT_Object_CSm	Passive	0	5	0	0	0	0	1000	1	VIEW	-16	0	0	0	0	0	0
19	2023-04-20	09:19:42	09:53:08	09:53:08:086	33	3	TNT_Object_CSm	TNT_Object_CSm	0	1500	0	0	0	0	5000	3	Object1.jpg	-16	0	0	0	0	0	0
19	2023-04-20	09:19:42	09:53:10	09:53:10:086	34	1	TNT_Think_CSm	fixation	0	5	500	0	0	1	495	1	+	-9	0	0	0	0	0	0
19	2023-04-20	09:19:42	09:53:11	09:53:11:103	34	2	TNT_Think_CSm	Think	0	5	0	0	0	0	1000	1	THINK	-16	0	0	0	0	0	0
19	2023-04-20	09:19:42	09:53:16	09:53:16:120	34	3	TNT_Think_CSm	TNT_Think_CSm	0	5	0	0	0	0	5000	2	Cue29.jpg	-16	0	0	0	0	0	0
19	2023-04-20	09:19:42	09:53:17	09:53:17:883	34	4	TNT_Think_CSm	Intrusion	0	500	3000	0	81	1	745	1	How <b>often</b> did you <b>think</b> about the <b>scene</b>?   <center><br><b>NEVER (1)    BRIEFLY (2)   OFTEN (3) </b>	-16	0	0	0	0	0	0
19	2023-04-20	09:19:42	09:53:20	09:53:20:624	35	1	TNT_NoThink_CSp	fixation	0	5	500	0	0	1	495	1	+	-9	0	0	0	0	0	0
19	2023-04-20	09:19:42	09:53:21	09:53:21:637	35	2	TNT_NoThink_CSp	NoThink	0	5	0	0	0	0	1000	1	DON'T THINK	-16	0	0	0	0	0	0
19	2023-04-20	09:19:42	09:53:26	09:53:26:654	35	3	TNT_NoThink_CSp	TNT_NoThink_CSp	0	5	0	0	0	0	5000	3	Cue9.jpg	-16	0	0	0	0	0	0
19	2023-04-20	09:19:42	09:53:26	09:53:26:323	35	4	TNT_NoThink_CSp	Intrusion	0	1500	3000	0	79	1	651	1	How <b>often</b> did you <b>think</b> about the <b>scene</b>?   <center><br><b>NEVER (1)    BRIEFLY (2)   OFTEN (3) </b>	-16	0	0	0	0	0	0
19	2023-04-20	09:19:42	09:53:30	09:53:30:658	36	1	TNT_Think_CSp	fixation	0	5	1000	0	0	1	995	1	+	-9	0	0	0	0	0	0
19	2023-04-20	09:19:42	09:53:31	09:53:31:671	36	2	TNT_Think_CSp	Think	0	5	0	0	0	0	1000	1	THINK	-16	0	0	0	0	0	0
19	2023-04-20	09:19:42	09:53:36	09:53:36:688	36	3	TNT_Think_CSp	TNT_Think_CSp	0	5	0	0	0	0	5000	4	Cue24.jpg	-16	0	0	0	0	0	0
19	2023-04-20	09:19:42	09:53:37	09:53:37:459	36	4	TNT_Think_CSp	Intrusion	0	1000	3000	0	80	1	1753	1	How <b>often</b> did you <b>think</b> about the <b>scene</b>?   <center><br><b>NEVER (1)    BRIEFLY (2)   OFTEN (3) </b>	-16	0	0	0	0	0	0
19	2023-04-20	09:19:42	09:53:40	09:53:40:191	37	1	TNT_Object_CSm	fixation	0	5	1500	0	0	1	1495	1	+	-8	0	0	0	0	0	0
19	2023-04-20	09:19:42	09:53:41	09:53:41:205	37	2	TNT_Object_CSm	Passive	0	5	0	0	0	0	1000	1	VIEW	-16	0	0	0	0	0	0
19	2023-04-20	09:19:42	09:53:46	09:53:46:222	37	3	TNT_Object_CSm	TNT_Object_CSm	0	1000	0	0	0	0	5000	2	Object5.jpg	-16	0	0	0	0	0	0
19	2023-04-20	09:19:42	09:53:49	09:53:49:722	38	1	TNT_NoThink_CSm	fixation	0	5	1500	0	0	1	1495	1	+	-8	0	0	0	0	0	0
19	2023-04-20	09:19:42	09:53:50	09:53:50:739	38	2	TNT_NoThink_CSm	NoThink	0	5	0	0	0	0	1000	1	DON'T THINK	-16	0	0	0	0	0	0
19	2023-04-20	09:19:42	09:53:55	09:53:55:756	38	3	TNT_NoThink_CSm	TNT_NoThink_CSm	0	5	0	0	0	0	5000	6	Cue23.jpg	-16	0	0	0	0	0	0
19	2023-04-20	09:19:42	09:53:56	09:53:56:587	38	4	TNT_NoThink_CSm	Intrusion	0	1000	3000	0	80	1	813	1	How <b>often</b> did you <b>think</b> about the <b>scene</b>?   <center><br><b>NEVER (1)    BRIEFLY (2)   OFTEN (3) </b>	-16	0	0	0	0	0	0
19	2023-04-20	09:19:42	09:53:59	09:53:59:759	39	1	TNT_NoThink_CSp	fixation	0	5	1000	0	0	1	995	1	+	-8	0	0	0	0	0	0
19	2023-04-20	09:19:42	09:54:00	09:54:00:773	39	2	TNT_NoThink_CSp	NoThink	0	5	0	0	0	0	1000	1	DON'T THINK	-16	0	0	0	0	0	0
19	2023-04-20	09:19:42	09:54:05	09:54:05:790	39	3	TNT_NoThink_CSp	TNT_NoThink_CSp	0	5	0	0	0	0	5000	2	Cue25.jpg	-16	0	0	0	0	0	0
19	2023-04-20	09:19:42	09:54:06	09:54:06:067	39	4	TNT_NoThink_CSp	Intrusion	0	1500	3000	0	79	1	1260	1	How <b>often</b> did you <b>think</b> about the <b>scene</b>?   <center><br><b>NEVER (1)    BRIEFLY (2)   OFTEN (3) </b>	-16	0	0	0	0	0	0
19	2023-04-20	09:19:42	09:54:08	09:54:08:294	40	1	TNT_NoThink_CSm	fixation	0	5	500	0	0	1	495	1	+	-16	0	0	0	0	0	0
19	2023-04-20	09:19:42	09:54:09	09:54:09:307	40	2	TNT_NoThink_CSm	NoThink	0	5	0	0	0	0	1000	1	DON'T THINK	-16	0	0	0	0	0	0
19	2023-04-20	09:19:42	09:54:14	09:54:14:323	40	3	TNT_NoThink_CSm	TNT_NoThink_CSm	0	5	0	0	0	0	5000	5	Cue26.jpg	-16	0	0	0	0	0	0
19	2023-04-20	09:19:42	09:54:16	09:54:16:603	40	4	TNT_NoThink_CSm	Intrusion	0	500	3000	0	79	1	1262	1	How <b>often</b> did you <b>think</b> about the <b>scene</b>?   <center><br><b>NEVER (1)    BRIEFLY (2)   OFTEN (3) </b>	-16	0	0	0	0	0	0
19	2023-04-20	09:19:42	09:54:18	09:54:18:827	41	1	TNT_Object_CSm	fixation	0	5	500	0	0	1	495	1	+	-9	0	0	0	0	0	0
19	2023-04-20	09:19:42	09:54:19	09:54:19:841	41	2	TNT_Object_CSm	Passive	0	5	0	0	0	0	1000	1	VIEW	-16	0	0	0	0	0	0
19	2023-04-20	09:19:42	09:54:24	09:54:24:857	41	3	TNT_Object_CSm	TNT_Object_CSm	0	500	0	0	0	0	5000	1	Object3.jpg	-16	0	0	0	0	0	0
19	2023-04-20	09:19:42	09:54:26	09:54:26:857	42	1	TNT_NoThink_CSp	fixation	0	5	1500	0	0	1	1495	1	+	-9	0	0	0	0	0	0
19	2023-04-20	09:19:42	09:54:27	09:54:27:875	42	2	TNT_NoThink_CSp	NoThink	0	5	0	0	0	0	1000	1	DON'T THINK	-16	0	0	0	0	0	0
19	2023-04-20	09:19:42	09:54:32	09:54:32:891	42	3	TNT_NoThink_CSp	TNT_NoThink_CSp	0	5	0	0	0	0	5000	5	Cue18.jpg	-16	0	0	0	0	0	0
19	2023-04-20	09:19:42	09:54:32	09:54:32:451	42	4	TNT_NoThink_CSp	Intrusion	0	1500	3000	0	79	1	542	1	How <b>often</b> did you <b>think</b> about the <b>scene</b>?   <center><br><b>NEVER (1)    BRIEFLY (2)   OFTEN (3) </b>	-16	0	0	0	0	0	0
19	2023-04-20	09:19:42	09:54:36	09:54:36:895	43	1	TNT_Object_CSp	fixation	0	5	1000	0	0	1	995	1	+	-16	0	0	0	0	0	0
19	2023-04-20	09:19:42	09:54:37	09:54:37:908	43	2	TNT_Object_CSp	Passive	0	5	0	0	0	0	1000	1	VIEW	-16	0	0	0	0	0	0
19	2023-04-20	09:19:42	09:54:42	09:54:42:925	43	3	TNT_Object_CSp	TNT_Object_CSp	0	1000	0	0	0	0	5000	3	Object6.jpg	-16	0	0	0	0	0	0
19	2023-04-20	09:19:42	09:54:44	09:54:44:925	44	1	TNT_Object_CSm	fixation	0	5	1000	0	0	1	995	1	+	-8	0	0	0	0	0	0
19	2023-04-20	09:19:42	09:54:45	09:54:45:942	44	2	TNT_Object_CSm	Passive	0	5	0	0	0	0	1000	1	VIEW	-16	0	0	0	0	0	0
19	2023-04-20	09:19:42	09:54:50	09:54:50:959	44	3	TNT_Object_CSm	TNT_Object_CSm	0	500	0	0	0	0	5000	4	Object8.jpg	-16	0	0	0	0	0	0
19	2023-04-20	09:19:42	09:54:51	09:54:51:958	45	1	TNT_Think_CSm	fixation	0	5	500	0	0	1	495	1	+	-9	0	0	0	0	0	0
19	2023-04-20	09:19:42	09:54:52	09:54:52:976	45	2	TNT_Think_CSm	Think	0	5	0	0	0	0	1000	1	THINK	-16	0	0	0	0	0	0
19	2023-04-20	09:19:42	09:54:57	09:54:57:993	45	3	TNT_Think_CSm	TNT_Think_CSm	0	5	0	0	0	0	5000	6	Cue16.jpg	-16	0	0	0	0	0	0
19	2023-04-20	09:19:42	09:54:58	09:54:58:339	45	4	TNT_Think_CSm	Intrusion	0	1000	3000	0	81	1	1328	1	How <b>often</b> did you <b>think</b> about the <b>scene</b>?   <center><br><b>NEVER (1)    BRIEFLY (2)   OFTEN (3) </b>	-16	0	0	0	0	0	0
19	2023-04-20	09:19:42	09:55:01	09:55:01:497	46	1	TNT_Think_CSm	fixation	0	5	1500	0	0	1	1495	1	+	-16	0	0	0	0	0	0
19	2023-04-20	09:19:42	09:55:02	09:55:02:510	46	2	TNT_Think_CSm	Think	0	5	0	0	0	0	1000	1	THINK	-16	0	0	0	0	0	0
19	2023-04-20	09:19:42	09:55:08	09:55:08:527	46	3	TNT_Think_CSm	TNT_Think_CSm	0	5	0	0	0	0	5000	1	Cue22.jpg	-16	0	0	0	0	0	0
19	2023-04-20	09:19:42	09:55:09	09:55:09:443	46	4	TNT_Think_CSm	Intrusion	0	500	3000	0	80	1	1899	1	How <b>often</b> did you <b>think</b> about the <b>scene</b>?   <center><br><b>NEVER (1)    BRIEFLY (2)   OFTEN (3) </b>	-16	0	0	0	0	0	0
19	2023-04-20	09:19:42	09:55:12	09:55:12:031	47	1	TNT_Object_CSm	fixation	0	5	1500	0	0	1	1495	1	+	-16	0	0	0	0	0	0
19	2023-04-20	09:19:42	09:55:13	09:55:13:044	47	2	TNT_Object_CSm	Passive	0	5	0	0	0	0	1000	1	VIEW	-16	0	0	0	0	0	0
19	2023-04-20	09:19:42	09:55:18	09:55:18:060	47	3	TNT_Object_CSm	TNT_Object_CSm	0	1500	0	0	0	0	5000	3	Object1.jpg	-16	0	0	0	0	0	0
19	2023-04-20	09:19:42	09:55:21	09:55:21:560	48	1	TNT_NoThink_CSm	fixation	0	5	1000	0	0	1	995	1	+	-9	0	0	0	0	0	0
19	2023-04-20	09:19:42	09:55:22	09:55:22:578	48	2	TNT_NoThink_CSm	NoThink	0	5	0	0	0	0	1000	1	DON'T THINK	-16	0	0	0	0	0	0
19	2023-04-20	09:19:42	09:55:27	09:55:27:594	48	3	TNT_NoThink_CSm	TNT_NoThink_CSm	0	5	0	0	0	0	5000	2	Cue33.jpg	-16	0	0	0	0	0	0
19	2023-04-20	09:19:42	09:55:27	09:55:27:139	48	4	TNT_NoThink_CSm	Intrusion	0	1500	3000	0	80	1	527	1	How <b>often</b> did you <b>think</b> about the <b>scene</b>?   <center><br><b>NEVER (1)    BRIEFLY (2)   OFTEN (3) </b>	-16	0	0	0	0	0	0
19	2023-04-20	09:19:42	09:55:30	09:55:30:099	49	1	TNT_NoThink_CSp	fixation	0	5	500	0	0	1	495	1	+	-16	0	0	0	0	0	0
19	2023-04-20	09:19:42	09:55:31	09:55:31:112	49	2	TNT_NoThink_CSp	NoThink	0	5	0	0	0	0	1000	1	DON'T THINK	-16	0	0	0	0	0	0
19	2023-04-20	09:19:42	09:55:36	09:55:36:128	49	3	TNT_NoThink_CSp	TNT_NoThink_CSp	0	5	0	0	0	0	5000	4	Cue8.jpg	-16	0	0	0	0	0	0
19	2023-04-20	09:19:42	09:55:37	09:55:37:979	49	4	TNT_NoThink_CSp	Intrusion	0	1000	3000	0	79	1	833	1	How <b>often</b> did you <b>think</b> about the <b>scene</b>?   <center><br><b>NEVER (1)    BRIEFLY (2)   OFTEN (3) </b>	-16	0	0	0	0	0	0
19	2023-04-20	09:19:42	09:55:40	09:55:40:132	50	1	TNT_NoThink_CSm	fixation	0	5	1000	0	0	1	995	1	+	-16	0	0	0	0	0	0
19	2023-04-20	09:19:42	09:55:41	09:55:41:145	50	2	TNT_NoThink_CSm	NoThink	0	5	0	0	0	0	1000	1	DON'T THINK	-16	0	0	0	0	0	0
19	2023-04-20	09:19:42	09:55:46	09:55:46:162	50	3	TNT_NoThink_CSm	TNT_NoThink_CSm	0	5	0	0	0	0	5000	3	Cue10.jpg	-16	0	0	0	0	0	0
19	2023-04-20	09:19:42	09:55:47	09:55:47:203	50	4	TNT_NoThink_CSm	Intrusion	0	500	3000	0	79	1	1023	1	How <b>often</b> did you <b>think</b> about the <b>scene</b>?   <center><br><b>NEVER (1)    BRIEFLY (2)   OFTEN (3) </b>	-16	0	0	0	0	0	0
19	2023-04-20	09:19:42	09:55:50	09:55:50:666	51	1	TNT_Object_CSp	fixation	0	5	500	0	0	1	495	1	+	-8	0	0	0	0	0	0
19	2023-04-20	09:19:42	09:55:51	09:55:51:679	51	2	TNT_Object_CSp	Passive	0	5	0	0	0	0	1000	1	VIEW	-16	0	0	0	0	0	0
19	2023-04-20	09:19:42	09:55:56	09:55:56:696	51	3	TNT_Object_CSp	TNT_Object_CSp	0	1500	0	0	0	0	5000	2	Object2.jpg	-16	0	0	0	0	0	0
19	2023-04-20	09:19:42	09:55:59	09:55:59:696	52	1	TNT_Think_CSm	fixation	0	5	1500	0	0	1	1495	1	+	-9	0	0	0	0	0	0
19	2023-04-20	09:19:42	09:56:00	09:56:00:713	52	2	TNT_Think_CSm	Think	0	5	0	0	0	0	1000	1	THINK	-16	0	0	0	0	0	0
19	2023-04-20	09:19:42	09:56:05	09:56:05:730	52	3	TNT_Think_CSm	TNT_Think_CSm	0	5	0	0	0	0	5000	4	Cue34.jpg	-16	0	0	0	0	0	0
19	2023-04-20	09:19:42	09:56:06	09:56:06:387	52	4	TNT_Think_CSm	Intrusion	0	1000	3000	0	81	1	1639	1	How <b>often</b> did you <b>think</b> about the <b>scene</b>?   <center><br><b>NEVER (1)    BRIEFLY (2)   OFTEN (3) </b>	-16	0	0	0	0	0	0
19	2023-04-20	09:19:42	09:56:08	09:56:08:233	53	1	TNT_Think_CSm	fixation	0	5	500	0	0	1	495	1	+	-6	0	0	0	0	0	0
19	2023-04-20	09:19:42	09:56:09	09:56:09:247	53	2	TNT_Think_CSm	Think	0	5	0	0	0	0	1000	1	THINK	-16	0	0	0	0	0	0
19	2023-04-20	09:19:42	09:56:14	09:56:14:264	53	3	TNT_Think_CSm	TNT_Think_CSm	0	5	0	0	0	0	5000	3	Cue17.jpg	-16	0	0	0	0	0	0
19	2023-04-20	09:19:42	09:56:15	09:56:15:331	53	4	TNT_Think_CSm	Intrusion	0	1500	3000	0	81	1	1049	1	How <b>often</b> did you <b>think</b> about the <b>scene</b>?   <center><br><b>NEVER (1)    BRIEFLY (2)   OFTEN (3) </b>	-16	0	0	0	0	0	0
19	2023-04-20	09:19:42	09:56:19	09:56:19:768	54	1	TNT_Think_CSp	fixation	0	5	1500	0	0	1	1495	1	+	-8	0	0	0	0	0	0
19	2023-04-20	09:19:42	09:56:20	09:56:20:781	54	2	TNT_Think_CSp	Think	0	5	0	0	0	0	1000	1	THINK	-16	0	0	0	0	0	0
19	2023-04-20	09:19:42	09:56:25	09:56:25:798	54	3	TNT_Think_CSp	TNT_Think_CSp	0	5	0	0	0	0	5000	6	Cue14.jpg	-16	0	0	0	0	0	0
19	2023-04-20	09:19:42	09:56:26	09:56:26:971	54	4	TNT_Think_CSp	Intrusion	0	500	3000	0	81	1	1155	1	How <b>often</b> did you <b>think</b> about the <b>scene</b>?   <center><br><b>NEVER (1)    BRIEFLY (2)   OFTEN (3) </b>	-16	0	0	0	0	0	0
19	2023-04-20	09:19:42	09:56:29	09:56:29:801	55	1	TNT_NoThink_CSp	fixation	0	5	1000	0	0	1	995	1	+	-8	0	0	0	0	0	0
19	2023-04-20	09:19:42	09:56:30	09:56:30:815	55	2	TNT_NoThink_CSp	NoThink	0	5	0	0	0	0	1000	1	DON'T THINK	-16	0	0	0	0	0	0
19	2023-04-20	09:19:42	09:56:35	09:56:35:832	55	3	TNT_NoThink_CSp	TNT_NoThink_CSp	0	5	0	0	0	0	5000	6	Cue15.jpg	-16	0	0	0	0	0	0
19	2023-04-20	09:19:42	09:56:35	09:56:35:379	55	4	TNT_NoThink_CSp	Intrusion	0	1500	3000	0	79	1	529	1	How <b>often</b> did you <b>think</b> about the <b>scene</b>?   <center><br><b>NEVER (1)    BRIEFLY (2)   OFTEN (3) </b>	-16	0	0	0	0	0	0
19	2023-04-20	09:19:42	09:56:39	09:56:39:836	56	1	TNT_Think_CSp	fixation	0	5	1000	0	0	1	995	1	+	-16	0	0	0	0	0	0
19	2023-04-20	09:19:42	09:56:40	09:56:40:849	56	2	TNT_Think_CSp	Think	0	5	0	0	0	0	1000	1	THINK	-16	0	0	0	0	0	0
19	2023-04-20	09:19:42	09:56:45	09:56:45:866	56	3	TNT_Think_CSp	TNT_Think_CSp	0	5	0	0	0	0	5000	3	Cue2.jpg	-16	0	0	0	0	0	0
19	2023-04-20	09:19:42	09:56:46	09:56:46:923	56	4	TNT_Think_CSp	Intrusion	0	500	3000	0	81	1	1039	1	How <b>often</b> did you <b>think</b> about the <b>scene</b>?   <center><br><b>NEVER (1)    BRIEFLY (2)   OFTEN (3) </b>	-16	0	0	0	0	0	0
19	2023-04-20	09:19:42	09:56:49	09:56:49:370	57	1	TNT_NoThink_CSm	fixation	0	5	1500	0	0	1	1495	1	+	-16	0	0	0	0	0	0
19	2023-04-20	09:19:42	09:56:50	09:56:50:383	57	2	TNT_NoThink_CSm	NoThink	0	5	0	0	0	0	1000	1	DON'T THINK	-16	0	0	0	0	0	0
19	2023-04-20	09:19:42	09:56:55	09:56:55:399	57	3	TNT_NoThink_CSm	TNT_NoThink_CSm	0	5	0	0	0	0	5000	1	Cue11.jpg	-16	0	0	0	0	0	0
19	2023-04-20	09:19:42	09:56:57	09:56:57:407	57	4	TNT_NoThink_CSm	Intrusion	0	1000	3000	0	0	0	2000	1	How <b>often</b> did you <b>think</b> about the <b>scene</b>?   <center><br><b>NEVER (1)    BRIEFLY (2)   OFTEN (3) </b>	-16	0	0	0	0	0	0
19	2023-04-20	09:19:42	09:56:59	09:56:59:904	58	1	TNT_Object_CSp	fixation	0	5	500	0	0	1	495	1	+	-16	0	0	0	0	0	0
19	2023-04-20	09:19:42	09:57:00	09:57:00:916	58	2	TNT_Object_CSp	Passive	0	5	0	0	0	0	1000	1	VIEW	-16	0	0	0	0	0	0
19	2023-04-20	09:19:42	09:57:05	09:57:05:933	58	3	TNT_Object_CSp	TNT_Object_CSp	0	1500	0	0	0	0	5000	1	Object4.jpg	-16	0	0	0	0	0	0
19	2023-04-20	09:19:42	09:57:08	09:57:08:933	59	1	TNT_Think_CSp	fixation	0	5	1500	0	0	1	1495	1	+	-8	0	0	0	0	0	0
19	2023-04-20	09:19:42	09:57:09	09:57:09:951	59	2	TNT_Think_CSp	Think	0	5	0	0	0	0	1000	1	THINK	-16	0	0	0	0	0	0
19	2023-04-20	09:19:42	09:57:14	09:57:14:968	59	3	TNT_Think_CSp	TNT_Think_CSp	0	5	0	0	0	0	5000	1	Cue27.jpg	-16	0	0	0	0	0	0
19	2023-04-20	09:19:42	09:57:15	09:57:15:931	59	4	TNT_Think_CSp	Intrusion	0	1000	3000	0	81	1	946	1	How <b>often</b> did you <b>think</b> about the <b>scene</b>?   <center><br><b>NEVER (1)    BRIEFLY (2)   OFTEN (3) </b>	-16	0	0	0	0	0	0
19	2023-04-20	09:19:42	09:57:17	09:57:17:472	60	1	TNT_Object_CSp	fixation	0	5	500	0	0	1	495	1	+	-16	0	0	0	0	0	0
19	2023-04-20	09:19:42	09:57:18	09:57:18:484	60	2	TNT_Object_CSp	Passive	0	5	0	0	0	0	1000	1	VIEW	-16	0	0	0	0	0	0
19	2023-04-20	09:19:42	09:57:23	09:57:23:501	60	3	TNT_Object_CSp	TNT_Object_CSp	0	1000	0	0	0	0	5000	4	Object7.jpg	-16	0	0	0	0	0	0
19	2023-04-20	09:19:42	09:57:25	09:57:25:501	61	1	TNT_Think_CSp	fixation	0	5	1000	0	0	1	995	1	+	-8	0	0	0	0	0	0
19	2023-04-20	09:19:42	09:57:27	09:57:27:518	61	2	TNT_Think_CSp	Think	0	5	0	0	0	0	1000	1	THINK	-16	0	0	0	0	0	0
19	2023-04-20	09:19:42	09:57:32	09:57:32:535	61	3	TNT_Think_CSp	TNT_Think_CSp	0	5	0	0	0	0	5000	2	Cue6.jpg	-16	0	0	0	0	0	0
19	2023-04-20	09:19:42	09:57:32	09:57:32:499	61	4	TNT_Think_CSp	Intrusion	0	1500	3000	0	81	1	946	1	How <b>often</b> did you <b>think</b> about the <b>scene</b>?   <center><br><b>NEVER (1)    BRIEFLY (2)   OFTEN (3) </b>	-16	0	0	0	0	0	0
19	2023-04-20	09:19:42	09:57:35	09:57:35:039	62	1	TNT_Think_CSp	fixation	0	5	500	0	0	1	495	1	+	-9	0	0	0	0	0	0
19	2023-04-20	09:19:42	09:57:36	09:57:36:052	62	2	TNT_Think_CSp	Think	0	5	0	0	0	0	1000	1	THINK	-16	0	0	0	0	0	0
19	2023-04-20	09:19:42	09:57:41	09:57:41:069	62	3	TNT_Think_CSp	TNT_Think_CSp	0	5	0	0	0	0	5000	5	Cue32.jpg	-16	0	0	0	0	0	0
19	2023-04-20	09:19:42	09:57:43	09:57:43:579	62	4	TNT_Think_CSp	Intrusion	0	500	3000	0	81	1	1492	1	How <b>often</b> did you <b>think</b> about the <b>scene</b>?   <center><br><b>NEVER (1)    BRIEFLY (2)   OFTEN (3) </b>	-16	0	0	0	0	0	0
19	2023-04-20	09:19:42	09:57:45	09:57:45:073	63	1	TNT_NoThink_CSp	fixation	0	5	1000	0	0	1	995	1	+	-9	0	0	0	0	0	0
19	2023-04-20	09:19:42	09:57:46	09:57:46:086	63	2	TNT_NoThink_CSp	NoThink	0	5	0	0	0	0	1000	1	DON'T THINK	-16	0	0	0	0	0	0
19	2023-04-20	09:19:42	09:57:51	09:57:51:103	63	3	TNT_NoThink_CSp	TNT_NoThink_CSp	0	5	0	0	0	0	5000	1	Cue30.jpg	-16	0	0	0	0	0	0
19	2023-04-20	09:19:42	09:57:51	09:57:51:491	63	4	TNT_NoThink_CSp	Intrusion	0	500	3000	0	79	1	370	1	How <b>often</b> did you <b>think</b> about the <b>scene</b>?   <center><br><b>NEVER (1)    BRIEFLY (2)   OFTEN (3) </b>	-16	0	0	0	0	0	0
19	2023-04-20	09:19:42	09:57:56	09:57:56:606	64	1	TNT_Think_CSm	fixation	0	5	1500	0	0	1	1495	1	+	-8	0	0	0	0	0	0
19	2023-04-20	09:19:42	09:57:57	09:57:57:620	64	2	TNT_Think_CSm	Think	0	5	0	0	0	0	1000	1	THINK	-16	0	0	0	0	0	0
19	2023-04-20	09:19:42	09:58:02	09:58:02:637	64	3	TNT_Think_CSm	TNT_Think_CSm	0	5	0	0	0	0	5000	5	Cue5.jpg	-16	0	0	0	0	0	0
19	2023-04-20	09:19:42	09:58:03	09:58:03:075	64	4	TNT_Think_CSm	Intrusion	0	1000	3000	0	81	1	1420	1	How <b>often</b> did you <b>think</b> about the <b>scene</b>?   <center><br><b>NEVER (1)    BRIEFLY (2)   OFTEN (3) </b>	-16	0	0	0	0	0	0
19	2023-04-20	09:19:42	09:58:06	09:58:06:140	65	1	TNT_NoThink_CSm	fixation	0	5	1500	0	0	1	1495	1	+	-8	0	0	0	0	0	0
19	2023-04-20	09:19:42	09:58:07	09:58:07:154	65	2	TNT_NoThink_CSm	NoThink	0	5	0	0	0	0	1000	1	DON'T THINK	-16	0	0	0	0	0	0
19	2023-04-20	09:19:42	09:58:12	09:58:12:171	65	3	TNT_NoThink_CSm	TNT_NoThink_CSm	0	5	0	0	0	0	5000	4	Cue4.jpg	-16	0	0	0	0	0	0
19	2023-04-20	09:19:42	09:58:13	09:58:13:707	65	4	TNT_NoThink_CSm	Intrusion	0	1500	3000	0	79	1	518	1	How <b>often</b> did you <b>think</b> about the <b>scene</b>?   <center><br><b>NEVER (1)    BRIEFLY (2)   OFTEN (3) </b>	-16	0	0	0	0	0	0
19	2023-04-20	09:19:42	09:58:16	09:58:16:674	66	1	Expectancy_rating	fixation	0	5	500	0	0	1	495	1	+	-8	0	0	0	0	0	0
19	2023-04-20	09:19:42	09:58:27	09:58:27:054	66	2	Expectancy_rating	expectancy_rating	0	500	0	0	0	0	11355	1	When you saw the <b>object</b>,   to what <b>degree (0-100%)</b> did you expect the <b>unpleasant sound to occur</b>?	-16	30	Cue30.jpg	-16	0	0	0
19	2023-04-20	09:19:42	09:58:29	09:58:29:553	67	1	Expectancy_rating	fixation	0	5	1000	0	0	1	995	1	+	-13	0	0	0	0	0	0
19	2023-04-20	09:19:42	09:58:33	09:58:33:054	67	2	Expectancy_rating	expectancy_rating	0	1000	0	0	0	0	4471	1	When you saw the <b>object</b>,   to what <b>degree (0-100%)</b> did you expect the <b>unpleasant sound to occur</b>?	-16	12	Cue12.jpg	-16	0	0	0
19	2023-04-20	09:19:42	09:58:35	09:58:35:552	68	1	Expectancy_rating	fixation	0	5	500	0	0	1	495	1	+	-14	0	0	0	0	0	0
19	2023-04-20	09:19:42	09:58:38	09:58:38:371	68	2	Expectancy_rating	expectancy_rating	0	1500	0	0	0	0	3797	1	When you saw the <b>object</b>,   to what <b>degree (0-100%)</b> did you expect the <b>unpleasant sound to occur</b>?	-12	48	Object8.jpg	-12	0	0	0
19	2023-04-20	09:19:42	09:58:41	09:58:41:370	69	1	Expectancy_rating	fixation	0	5	1500	0	0	1	1495	1	+	-14	0	0	0	0	0	0
19	2023-04-20	09:19:42	09:58:45	09:58:45:871	69	2	Expectancy_rating	expectancy_rating	0	1500	0	0	0	0	3469	1	When you saw the <b>object</b>,   to what <b>degree (0-100%)</b> did you expect the <b>unpleasant sound to occur</b>?	-12	5	Cue5.jpg	-12	0	0	0
19	2023-04-20	09:19:42	09:58:47	09:58:47:370	70	1	Expectancy_rating	fixation	0	5	1000	0	0	1	995	1	+	-14	0	0	0	0	0	0
19	2023-04-20	09:19:42	09:58:51	09:58:51:771	70	2	Expectancy_rating	expectancy_rating	0	500	0	0	0	0	3373	1	When you saw the <b>object</b>,   to what <b>degree (0-100%)</b> did you expect the <b>unpleasant sound to occur</b>?	-10	21	Cue21.jpg	-10	0	0	0
19	2023-04-20	09:19:42	09:58:52	09:58:52:270	71	1	Expectancy_rating	fixation	0	5	1000	0	0	1	995	1	+	-15	0	0	0	0	0	0
19	2023-04-20	09:19:42	09:58:56	09:58:56:022	71	2	Expectancy_rating	expectancy_rating	0	1000	0	0	0	0	3729	1	When you saw the <b>object</b>,   to what <b>degree (0-100%)</b> did you expect the <b>unpleasant sound to occur</b>?	-12	37	Cue37.jpg	-12	0	0	0
19	2023-04-20	09:19:42	09:58:59	09:58:59:521	72	1	Expectancy_rating	fixation	0	5	1500	0	0	1	1495	1	+	-14	0	0	0	0	0	0
19	2023-04-20	09:19:42	09:59:02	09:59:02:355	72	2	Expectancy_rating	expectancy_rating	0	1500	0	0	0	0	3814	1	When you saw the <b>object</b>,   to what <b>degree (0-100%)</b> did you expect the <b>unpleasant sound to occur</b>?	-12	9	Cue9.jpg	-12	0	0	0
19	2023-04-20	09:19:42	09:59:04	09:59:04:354	73	1	Expectancy_rating	fixation	0	5	500	0	0	1	495	1	+	-15	0	0	0	0	0	0
19	2023-04-20	09:19:42	09:59:08	09:59:08:305	73	2	Expectancy_rating	expectancy_rating	0	500	0	0	0	0	3901	1	When you saw the <b>object</b>,   to what <b>degree (0-100%)</b> did you expect the <b>unpleasant sound to occur</b>?	-12	14	Cue14.jpg	-12	0	0	0
19	2023-04-20	09:19:42	09:59:10	09:59:10:788	74	1	Expectancy_rating	fixation	0	5	1000	0	0	1	995	1	+	-14	0	0	0	0	0	0
19	2023-04-20	09:19:42	09:59:13	09:59:13:416	74	2	Expectancy_rating	expectancy_rating	0	1000	0	0	0	0	3610	1	When you saw the <b>object</b>,   to what <b>degree (0-100%)</b> did you expect the <b>unpleasant sound to occur</b>?	-16	45	Object5.jpg	-16	0	0	0
19	2023-04-20	09:19:42	09:59:15	09:59:15:916	75	1	Expectancy_rating	fixation	0	5	500	0	0	1	495	1	+	-15	0	0	0	0	0	0
19	2023-04-20	09:19:42	09:59:19	09:59:19:840	75	2	Expectancy_rating	expectancy_rating	0	1500	0	0	0	0	3909	1	When you saw the <b>object</b>,   to what <b>degree (0-100%)</b> did you expect the <b>unpleasant sound to occur</b>?	-16	7	Cue7.jpg	-16	0	0	0
19	2023-04-20	09:19:42	09:59:22	09:59:22:842	76	1	Expectancy_rating	fixation	0	5	1500	0	0	1	1495	1	+	-9	0	0	0	0	0	0
19	2023-04-20	09:19:42	09:59:25	09:59:25:973	76	2	Expectancy_rating	expectancy_rating	0	500	0	0	0	0	3103	1	When you saw the <b>object</b>,   to what <b>degree (0-100%)</b> did you expect the <b>unpleasant sound to occur</b>?	-16	20	Cue20.jpg	-16	0	0	0
19	2023-04-20	09:19:42	09:59:26	09:59:26:472	77	1	Expectancy_rating	fixation	0	5	1000	0	0	1	995	1	+	-14	0	0	0	0	0	0
19	2023-04-20	09:19:42	09:59:30	09:59:30:891	77	2	Expectancy_rating	expectancy_rating	0	1000	0	0	0	0	3390	1	When you saw the <b>object</b>,   to what <b>degree (0-100%)</b> did you expect the <b>unpleasant sound to occur</b>?	-12	40	Cue40.jpg	-12	0	0	0
19	2023-04-20	09:19:42	09:59:32	09:59:32:389	78	1	Expectancy_rating	fixation	0	5	1500	0	0	1	1495	1	+	-15	0	0	0	0	0	0
19	2023-04-20	09:19:42	09:59:36	09:59:36:657	78	2	Expectancy_rating	expectancy_rating	0	500	0	0	0	0	3234	1	When you saw the <b>object</b>,   to what <b>degree (0-100%)</b> did you expect the <b>unpleasant sound to occur</b>?	-11	29	Cue29.jpg	-11	0	0	0
19	2023-04-20	09:19:42	09:59:37	09:59:37:656	79	1	Expectancy_rating	fixation	0	5	500	0	0	1	495	1	+	-14	0	0	0	0	0	0
19	2023-04-20	09:19:42	09:59:40	09:59:40:641	79	2	Expectancy_rating	expectancy_rating	0	1000	0	0	0	0	2958	1	When you saw the <b>object</b>,   to what <b>degree (0-100%)</b> did you expect the <b>unpleasant sound to occur</b>?	-12	27	Cue27.jpg	-12	0	0	0
19	2023-04-20	09:19:42	09:59:42	09:59:42:140	80	1	Expectancy_rating	fixation	0	5	1500	0	0	1	1495	1	+	-15	0	0	0	0	0	0
19	2023-04-20	09:19:42	09:59:45	09:59:45:141	80	2	Expectancy_rating	expectancy_rating	0	1500	0	0	0	0	2978	1	When you saw the <b>object</b>,   to what <b>degree (0-100%)</b> did you expect the <b>unpleasant sound to occur</b>?	-9	38	Cue38.jpg	-9	0	0	0
19	2023-04-20	09:19:42	09:59:48	09:59:48:640	81	1	Expectancy_rating	fixation	0	5	1000	0	0	1	995	1	+	-15	0	0	0	0	0	0
19	2023-04-20	09:19:42	09:59:51	09:59:51:658	81	2	Expectancy_rating	expectancy_rating	0	500	0	0	0	0	2998	1	When you saw the <b>object</b>,   to what <b>degree (0-100%)</b> did you expect the <b>unpleasant sound to occur</b>?	-12	11	Cue11.jpg	-12	0	0	0
19	2023-04-20	09:19:42	09:59:52	09:59:52:657	82	1	Expectancy_rating	fixation	0	5	500	0	0	1	495	1	+	-14	0	0	0	0	0	0
19	2023-04-20	09:19:42	09:59:55	09:59:55:709	82	2	Expectancy_rating	expectancy_rating	0	1500	0	0	0	0	3029	1	When you saw the <b>object</b>,   to what <b>degree (0-100%)</b> did you expect the <b>unpleasant sound to occur</b>?	-12	10	Cue10.jpg	-12	0	0	0
19	2023-04-20	09:19:42	09:59:57	09:59:57:208	83	1	Expectancy_rating	fixation	0	5	1000	0	0	1	995	1	+	-14	0	0	0	0	0	0
19	2023-04-20	09:19:42	10:00:00	10:00:00:959	83	2	Expectancy_rating	expectancy_rating	0	1000	0	0	0	0	2719	1	When you saw the <b>object</b>,   to what <b>degree (0-100%)</b> did you expect the <b>unpleasant sound to occur</b>?	-11	36	Cue36.jpg	-11	0	0	0
19	2023-04-20	09:19:42	10:00:01	10:00:01:458	84	1	Expectancy_rating	fixation	0	5	500	0	0	1	495	1	+	-14	0	0	0	0	0	0
19	2023-04-20	09:19:42	10:00:04	10:00:04:459	84	2	Expectancy_rating	expectancy_rating	0	500	0	0	0	0	2980	1	When you saw the <b>object</b>,   to what <b>degree (0-100%)</b> did you expect the <b>unpleasant sound to occur</b>?	-9	25	Cue25.jpg	-9	0	0	0
19	2023-04-20	09:19:42	10:00:06	10:00:06:458	85	1	Expectancy_rating	fixation	0	5	1500	0	0	1	1495	1	+	-14	0	0	0	0	0	0
19	2023-04-20	09:19:42	10:00:09	10:00:09:309	85	2	Expectancy_rating	expectancy_rating	0	1500	0	0	0	0	2828	1	When you saw the <b>object</b>,   to what <b>degree (0-100%)</b> did you expect the <b>unpleasant sound to occur</b>?	-10	28	Cue28.jpg	-10	0	0	0
19	2023-04-20	09:19:42	10:00:12	10:00:12:809	86	1	Expectancy_rating	fixation	0	5	1000	0	0	1	995	1	+	-12	0	0	0	0	0	0
19	2023-04-20	09:19:42	10:00:15	10:00:15:610	86	2	Expectancy_rating	expectancy_rating	0	1000	0	0	0	0	2774	1	When you saw the <b>object</b>,   to what <b>degree (0-100%)</b> did you expect the <b>unpleasant sound to occur</b>?	-16	2	Cue2.jpg	-16	0	0	0
19	2023-04-20	09:19:42	10:00:16	10:00:16:109	87	1	Expectancy_rating	fixation	0	5	500	0	0	1	495	1	+	-15	0	0	0	0	0	0
19	2023-04-20	09:19:42	10:00:20	10:00:20:427	87	2	Expectancy_rating	expectancy_rating	0	500	0	0	0	0	4297	1	When you saw the <b>object</b>,   to what <b>degree (0-100%)</b> did you expect the <b>unpleasant sound to occur</b>?	-9	39	Cue39.jpg	-9	0	0	0
19	2023-04-20	09:19:42	10:00:22	10:00:22:425	88	1	Expectancy_rating	fixation	0	5	1500	0	0	1	1495	1	+	-14	0	0	0	0	0	0
19	2023-04-20	09:19:42	10:00:25	10:00:25:627	88	2	Expectancy_rating	expectancy_rating	0	1500	0	0	0	0	2172	1	When you saw the <b>object</b>,   to what <b>degree (0-100%)</b> did you expect the <b>unpleasant sound to occur</b>?	-12	3	Cue3.jpg	-12	0	0	0
19	2023-04-20	09:19:42	10:00:27	10:00:27:126	89	1	Expectancy_rating	fixation	0	5	1000	0	0	1	995	1	+	-15	0	0	0	0	0	0
19	2023-04-20	09:19:42	10:00:30	10:00:30:112	89	2	Expectancy_rating	expectancy_rating	0	1000	0	0	0	0	2960	1	When you saw the <b>object</b>,   to what <b>degree (0-100%)</b> did you expect the <b>unpleasant sound to occur</b>?	-12	23	Cue23.jpg	-12	0	0	0
19	2023-04-20	09:19:42	10:00:33	10:00:33:610	90	1	Expectancy_rating	fixation	0	5	1500	0	0	1	1495	1	+	-14	0	0	0	0	0	0
19	2023-04-20	09:19:42	10:00:36	10:00:36:628	90	2	Expectancy_rating	expectancy_rating	0	1500	0	0	0	0	2988	1	When you saw the <b>object</b>,   to what <b>degree (0-100%)</b> did you expect the <b>unpleasant sound to occur</b>?	-12	24	Cue24.jpg	-12	0	0	0
19	2023-04-20	09:19:42	10:00:38	10:00:38:627	91	1	Expectancy_rating	fixation	0	5	500	0	0	1	495	1	+	-15	0	0	0	0	0	0
19	2023-04-20	09:19:42	10:00:41	10:00:41:845	91	2	Expectancy_rating	expectancy_rating	0	1000	0	0	0	0	3188	1	When you saw the <b>object</b>,   to what <b>degree (0-100%)</b> did you expect the <b>unpleasant sound to occur</b>?	-11	33	Cue33.jpg	-11	0	0	0
19	2023-04-20	09:19:42	10:00:43	10:00:43:344	92	1	Expectancy_rating	fixation	0	5	1500	0	0	1	1495	1	+	-14	0	0	0	0	0	0
19	2023-04-20	09:19:42	10:00:46	10:00:46:961	92	2	Expectancy_rating	expectancy_rating	0	500	0	0	0	0	2591	1	When you saw the <b>object</b>,   to what <b>degree (0-100%)</b> did you expect the <b>unpleasant sound to occur</b>?	-12	15	Cue15.jpg	-12	0	0	0
19	2023-04-20	09:19:42	10:00:47	10:00:47:460	93	1	Expectancy_rating	fixation	0	5	1000	0	0	1	995	1	+	-14	0	0	0	0	0	0
19	2023-04-20	09:19:42	10:00:50	10:00:50:429	93	2	Expectancy_rating	expectancy_rating	0	500	0	0	0	0	2938	1	When you saw the <b>object</b>,   to what <b>degree (0-100%)</b> did you expect the <b>unpleasant sound to occur</b>?	-10	13	Cue13.jpg	-10	0	0	0
19	2023-04-20	09:19:42	10:00:51	10:00:51:428	94	1	Expectancy_rating	fixation	0	5	500	0	0	1	495	1	+	-15	0	0	0	0	0	0
19	2023-04-20	09:19:42	10:00:55	10:00:55:678	94	2	Expectancy_rating	expectancy_rating	0	1000	0	0	0	0	3227	1	When you saw the <b>object</b>,   to what <b>degree (0-100%)</b> did you expect the <b>unpleasant sound to occur</b>?	-9	43	Object3.jpg	-9	0	0	0
19	2023-04-20	09:19:42	10:00:57	10:00:57:178	95	1	Expectancy_rating	fixation	0	5	1500	0	0	1	1495	1	+	-14	0	0	0	0	0	0
19	2023-04-20	09:19:42	10:01:00	10:01:00:229	95	2	Expectancy_rating	expectancy_rating	0	1500	0	0	0	0	3029	1	When you saw the <b>object</b>,   to what <b>degree (0-100%)</b> did you expect the <b>unpleasant sound to occur</b>?	-11	34	Cue34.jpg	-11	0	0	0
19	2023-04-20	09:19:42	10:01:03	10:01:03:730	96	1	Expectancy_rating	fixation	0	5	1000	0	0	1	995	1	+	-10	0	0	0	0	0	0
19	2023-04-20	09:19:42	10:01:05	10:01:05:463	96	2	Expectancy_rating	expectancy_rating	0	500	0	0	0	0	2678	1	When you saw the <b>object</b>,   to what <b>degree (0-100%)</b> did you expect the <b>unpleasant sound to occur</b>?	-16	31	Cue31.jpg	-16	0	0	0
19	2023-04-20	09:19:42	10:01:06	10:01:06:447	97	1	Expectancy_rating	fixation	0	5	500	0	0	1	495	1	+	-9	0	0	0	0	0	0
19	2023-04-20	09:19:42	10:01:09	10:01:09:080	97	2	Expectancy_rating	expectancy_rating	0	1500	0	0	0	0	2601	1	When you saw the <b>object</b>,   to what <b>degree (0-100%)</b> did you expect the <b>unpleasant sound to occur</b>?	-16	19	Cue19.jpg	-16	0	0	0
19	2023-04-20	09:19:42	10:01:11	10:01:11:078	98	1	Expectancy_rating	fixation	0	5	500	0	0	1	495	1	+	-15	0	0	0	0	0	0
19	2023-04-20	09:19:42	10:01:14	10:01:14:913	98	2	Expectancy_rating	expectancy_rating	0	1000	0	0	0	0	2808	1	When you saw the <b>object</b>,   to what <b>degree (0-100%)</b> did you expect the <b>unpleasant sound to occur</b>?	-9	6	Cue6.jpg	-9	0	0	0
19	2023-04-20	09:19:42	10:01:16	10:01:16:411	99	1	Expectancy_rating	fixation	0	5	1500	0	0	1	1495	1	+	-15	0	0	0	0	0	0
19	2023-04-20	09:19:42	10:01:20	10:01:20:647	99	2	Expectancy_rating	expectancy_rating	0	500	0	0	0	0	3203	1	When you saw the <b>object</b>,   to what <b>degree (0-100%)</b> did you expect the <b>unpleasant sound to occur</b>?	-12	47	Object7.jpg	-12	0	0	0
19	2023-04-20	09:19:42	10:01:21	10:01:21:146	100	1	Expectancy_rating	fixation	0	5	1000	0	0	1	995	1	+	-14	0	0	0	0	0	0
19	2023-04-20	09:19:42	10:01:25	10:01:25:748	100	2	Expectancy_rating	expectancy_rating	0	1000	0	0	0	0	3580	1	When you saw the <b>object</b>,   to what <b>degree (0-100%)</b> did you expect the <b>unpleasant sound to occur</b>?	-12	1	Cue1.jpg	-12	0	0	0
19	2023-04-20	09:19:42	10:01:27	10:01:27:747	101	1	Expectancy_rating	fixation	0	5	1000	0	0	1	995	1	+	-14	0	0	0	0	0	0
19	2023-04-20	09:19:42	10:01:29	10:01:29:331	101	2	Expectancy_rating	expectancy_rating	0	1500	0	0	0	0	2556	1	When you saw the <b>object</b>,   to what <b>degree (0-100%)</b> did you expect the <b>unpleasant sound to occur</b>?	-9	4	Cue4.jpg	-9	0	0	0
19	2023-04-20	09:19:42	10:01:31	10:01:31:330	102	1	Expectancy_rating	fixation	0	5	500	0	0	1	495	1	+	-15	0	0	0	0	0	0
19	2023-04-20	09:19:42	10:01:34	10:01:34:047	102	2	Expectancy_rating	expectancy_rating	0	1500	0	0	0	0	2685	1	When you saw the <b>object</b>,   to what <b>degree (0-100%)</b> did you expect the <b>unpleasant sound to occur</b>?	-9	17	Cue17.jpg	-9	0	0	0
19	2023-04-20	09:19:42	10:01:37	10:01:37:046	103	1	Expectancy_rating	fixation	0	5	1500	0	0	1	1495	1	+	-15	0	0	0	0	0	0
19	2023-04-20	09:19:42	10:01:40	10:01:40:981	103	2	Expectancy_rating	expectancy_rating	0	1000	0	0	0	0	2903	1	When you saw the <b>object</b>,   to what <b>degree (0-100%)</b> did you expect the <b>unpleasant sound to occur</b>?	-12	16	Cue16.jpg	-12	0	0	0
19	2023-04-20	09:19:42	10:01:42	10:01:42:480	104	1	Expectancy_rating	fixation	0	5	1500	0	0	1	1495	1	+	-15	0	0	0	0	0	0
19	2023-04-20	09:19:42	10:01:46	10:01:46:216	104	2	Expectancy_rating	expectancy_rating	0	500	0	0	0	0	3710	1	When you saw the <b>object</b>,   to what <b>degree (0-100%)</b> did you expect the <b>unpleasant sound to occur</b>?	-11	44	Object4.jpg	-11	0	0	0
19	2023-04-20	09:19:42	10:01:47	10:01:47:214	105	1	Expectancy_rating	fixation	0	5	500	0	0	1	495	1	+	-15	0	0	0	0	0	0
19	2023-04-20	09:19:42	10:01:51	10:01:51:832	105	2	Expectancy_rating	expectancy_rating	0	1500	0	0	0	0	3592	1	When you saw the <b>object</b>,   to what <b>degree (0-100%)</b> did you expect the <b>unpleasant sound to occur</b>?	-16	46	Object6.jpg	-16	0	0	0
19	2023-04-20	09:19:42	10:01:53	10:01:53:333	106	1	Expectancy_rating	fixation	0	5	1000	0	0	1	995	1	+	-9	0	0	0	0	0	0
19	2023-04-20	09:19:42	10:01:56	10:01:56:415	106	2	Expectancy_rating	expectancy_rating	0	1000	0	0	0	0	3051	1	When you saw the <b>object</b>,   to what <b>degree (0-100%)</b> did you expect the <b>unpleasant sound to occur</b>?	-16	35	Cue35.jpg	-16	0	0	0
19	2023-04-20	09:19:42	10:01:58	10:01:58:914	107	1	Expectancy_rating	fixation	0	5	500	0	0	1	495	1	+	-14	0	0	0	0	0	0
19	2023-04-20	09:19:42	10:02:00	10:02:00:400	107	2	Expectancy_rating	expectancy_rating	0	500	0	0	0	0	2459	1	When you saw the <b>object</b>,   to what <b>degree (0-100%)</b> did you expect the <b>unpleasant sound to occur</b>?	-12	22	Cue22.jpg	-12	0	0	0
19	2023-04-20	09:19:42	10:02:02	10:02:02:899	108	1	Expectancy_rating	fixation	0	5	1000	0	0	1	995	1	+	-14	0	0	0	0	0	0
19	2023-04-20	09:19:42	10:02:05	10:02:05:817	108	2	Expectancy_rating	expectancy_rating	0	1000	0	0	0	0	2884	1	When you saw the <b>object</b>,   to what <b>degree (0-100%)</b> did you expect the <b>unpleasant sound to occur</b>?	-16	18	Cue18.jpg	-16	0	0	0
19	2023-04-20	09:19:42	10:02:07	10:02:07:316	109	1	Expectancy_rating	fixation	0	5	1500	0	0	1	1495	1	+	-15	0	0	0	0	0	0
19	2023-04-20	09:19:42	10:02:11	10:02:11:084	109	2	Expectancy_rating	expectancy_rating	0	500	0	0	0	0	3739	1	When you saw the <b>object</b>,   to what <b>degree (0-100%)</b> did you expect the <b>unpleasant sound to occur</b>?	-11	41	Object1.jpg	-11	0	0	0
19	2023-04-20	09:19:42	10:02:12	10:02:12:083	110	1	Expectancy_rating	fixation	0	5	500	0	0	1	495	1	+	-14	0	0	0	0	0	0
19	2023-04-20	09:19:42	10:02:16	10:02:16:067	110	2	Expectancy_rating	expectancy_rating	0	1500	0	0	0	0	3964	1	When you saw the <b>object</b>,   to what <b>degree (0-100%)</b> did you expect the <b>unpleasant sound to occur</b>?	-12	42	Object2.jpg	-12	0	0	0
19	2023-04-20	09:19:42	10:02:19	10:02:19:566	111	1	Expectancy_rating	fixation	0	5	1000	0	0	1	995	1	+	-15	0	0	0	0	0	0
19	2023-04-20	09:19:42	10:02:22	10:02:22:217	111	2	Expectancy_rating	expectancy_rating	0	1000	0	0	0	0	3600	1	When you saw the <b>object</b>,   to what <b>degree (0-100%)</b> did you expect the <b>unpleasant sound to occur</b>?	-16	26	Cue26.jpg	-16	0	0	0
19	2023-04-20	09:19:42	10:02:25	10:02:25:699	112	1	Expectancy_rating	fixation	0	5	1500	0	0	1	1495	1	+	-15	0	0	0	0	0	0
19	2023-04-20	09:19:42	10:02:28	10:02:28:119	112	2	Expectancy_rating	expectancy_rating	0	500	0	0	0	0	3386	1	When you saw the <b>object</b>,   to what <b>degree (0-100%)</b> did you expect the <b>unpleasant sound to occur</b>?	-12	32	Cue32.jpg	-12	0	0	0
19	2023-04-20	09:19:42	10:02:29	10:02:29:117	113	1	Expectancy_rating	fixation	0	5	500	0	0	1	495	1	+	-15	0	0	0	0	0	0
19	2023-04-20	09:19:42	10:02:32	10:02:32:018	113	2	Expectancy_rating	expectancy_rating	0	1500	0	0	0	0	2881	1	When you saw the <b>object</b>,   to what <b>degree (0-100%)</b> did you expect the <b>unpleasant sound to occur</b>?	-9	8	Cue8.jpg	-9	0	0	0
19	2023-04-20	09:19:42	10:02:39	10:02:39:576	114	1	countdown	instructions	0	5	0	0	57	0	5025	1	<center><br><br> <b>WATCH CALLIBRATION</b>.                <br><br><br><br>In a couple of seconds a <b>countdown</b> will start that counts down from 3 to 1,       <br><br>after which the screen will show the instruction <b>PRESS BUTTON</b>.       <br><br><b>As soon as you see that screen</b>, you must shortly press the button on your watch.       <br><br> <br><br> Press SPACE  to continue.	-13	0	0	0	0	0	0
19	2023-04-20	09:19:42	10:02:40	10:02:40:585	114	2	countdown	countdown_3	0	5	0	0	0	0	1000	1	3	-16	0	0	0	0	0	0
19	2023-04-20	09:19:42	10:02:41	10:02:41:604	114	3	countdown	countdown_2	0	5	0	0	0	0	1000	1	2	-16	0	0	0	0	0	0
19	2023-04-20	09:19:42	10:02:42	10:02:42:620	114	4	countdown	countdown_1	0	5	0	0	0	0	1000	1	1	-16	0	0	0	0	0	0
19	2023-04-20	09:19:42	10:02:43	10:02:43:637	114	5	countdown	press_button	0	5	0	0	0	0	1000	1	PRESS BUTTON NOW	-16	0	0	0	0	0	0
19	2023-04-20	09:19:42	10:02:58	10:02:58:671	115	1	continue_TNT	continue_TNT	0	5	0	0	0	0	15000	1	<center> <br><br><br> We will now continue with the next block of the attention task.   <br><br><br><center>Keep your fingers balanced on the <b>1, 2 and 3 </b>on the keyboard throughout the task   <br><br>to give the rating how well you were <b>able to think</b> or <b>not think</b> (1 = NEVER, 2 = BRIEFLY, 3 = OFTEN).	-16	0	0	0	0	0	0
19	2023-04-20	09:19:42	10:02:59	10:02:59:672	116	1	TNT_Object_CSp	fixation	0	5	1000	0	0	1	995	1	+	-5	0	0	0	0	0	0
19	2023-04-20	09:19:42	10:03:00	10:03:00:688	116	2	TNT_Object_CSp	Passive	0	5	0	0	0	0	1000	1	VIEW	-16	0	0	0	0	0	0
19	2023-04-20	09:19:42	10:03:05	10:03:05:705	116	3	TNT_Object_CSp	TNT_Object_CSp	0	500	0	0	0	0	5000	2	Object2.jpg	-16	0	0	0	0	0	0
19	2023-04-20	09:19:42	10:03:07	10:03:07:705	117	1	TNT_Think_CSm	fixation	0	5	1500	0	0	1	1495	1	+	-8	0	0	0	0	0	0
19	2023-04-20	09:19:42	10:03:08	10:03:08:722	117	2	TNT_Think_CSm	Think	0	5	0	0	0	0	1000	1	THINK	-16	0	0	0	0	0	0
19	2023-04-20	09:19:42	10:03:13	10:03:13:739	117	3	TNT_Think_CSm	TNT_Think_CSm	0	5	0	0	0	0	5000	2	Cue29.jpg	-16	0	0	0	0	0	0
19	2023-04-20	09:19:42	10:03:14	10:03:14:114	117	4	TNT_Think_CSm	Intrusion	0	1000	3000	0	81	1	1358	1	How <b>often</b> did you <b>think</b> about the <b>scene</b>?   <center><br><b>NEVER (1)    BRIEFLY (2)   OFTEN (3) </b>	-16	0	0	0	0	0	0
19	2023-04-20	09:19:42	10:03:17	10:03:17:743	118	1	TNT_Object_CSp	fixation	0	5	1000	0	0	1	995	1	+	-16	0	0	0	0	0	0
19	2023-04-20	09:19:42	10:03:18	10:03:18:756	118	2	TNT_Object_CSp	Passive	0	5	0	0	0	0	1000	1	VIEW	-16	0	0	0	0	0	0
19	2023-04-20	09:19:42	10:03:23	10:03:23:773	118	3	TNT_Object_CSp	TNT_Object_CSp	0	1000	0	0	0	0	5000	4	Object7.jpg	-16	0	0	0	0	0	0
19	2023-04-20	09:19:42	10:03:25	10:03:25:272	119	1	TNT_Think_CSm	fixation	0	5	1500	0	0	1	1495	1	+	-8	0	0	0	0	0	0
19	2023-04-20	09:19:42	10:03:26	10:03:26:289	119	2	TNT_Think_CSm	Think	0	5	0	0	0	0	1000	1	THINK	-16	0	0	0	0	0	0
19	2023-04-20	09:19:42	10:03:31	10:03:31:306	119	3	TNT_Think_CSm	TNT_Think_CSm	0	5	0	0	0	0	5000	6	Cue16.jpg	-16	0	0	0	0	0	0
19	2023-04-20	09:19:42	10:03:33	10:03:33:610	119	4	TNT_Think_CSm	Intrusion	0	1500	3000	0	81	1	1287	1	How <b>often</b> did you <b>think</b> about the <b>scene</b>?   <center><br><b>NEVER (1)    BRIEFLY (2)   OFTEN (3) </b>	-16	0	0	0	0	0	0
19	2023-04-20	09:19:42	10:03:35	10:03:35:810	120	1	TNT_NoThink_CSp	fixation	0	5	500	0	0	1	495	1	+	-9	0	0	0	0	0	0
19	2023-04-20	09:19:42	10:03:36	10:03:36:824	120	2	TNT_NoThink_CSp	NoThink	0	5	0	0	0	0	1000	1	DON'T THINK	-16	0	0	0	0	0	0
19	2023-04-20	09:19:42	10:03:41	10:03:41:840	120	3	TNT_NoThink_CSp	TNT_NoThink_CSp	0	5	0	0	0	0	5000	6	Cue15.jpg	-16	0	0	0	0	0	0
19	2023-04-20	09:19:42	10:03:41	10:03:41:362	120	4	TNT_NoThink_CSp	Intrusion	0	500	3000	0	79	1	505	1	How <b>often</b> did you <b>think</b> about the <b>scene</b>?   <center><br><b>NEVER (1)    BRIEFLY (2)   OFTEN (3) </b>	-16	0	0	0	0	0	0
19	2023-04-20	09:19:42	10:03:45	10:03:45:344	121	1	TNT_Think_CSp	fixation	0	5	1500	0	0	1	1495	1	+	-6	0	0	0	0	0	0
19	2023-04-20	09:19:42	10:03:46	10:03:46:357	121	2	TNT_Think_CSp	Think	0	5	0	0	0	0	1000	1	THINK	-16	0	0	0	0	0	0
19	2023-04-20	09:19:42	10:03:51	10:03:51:374	121	3	TNT_Think_CSp	TNT_Think_CSp	0	5	0	0	0	0	5000	1	Cue27.jpg	-16	0	0	0	0	0	0
19	2023-04-20	09:19:42	10:03:52	10:03:52:514	121	4	TNT_Think_CSp	Intrusion	0	500	3000	0	81	1	1123	1	How <b>often</b> did you <b>think</b> about the <b>scene</b>?   <center><br><b>NEVER (1)    BRIEFLY (2)   OFTEN (3) </b>	-16	0	0	0	0	0	0
19	2023-04-20	09:19:42	10:03:55	10:03:55:878	122	1	TNT_Think_CSp	fixation	0	5	500	0	0	1	495	1	+	-9	0	0	0	0	0	0
19	2023-04-20	09:19:42	10:03:56	10:03:56:891	122	2	TNT_Think_CSp	Think	0	5	0	0	0	0	1000	1	THINK	-16	0	0	0	0	0	0
19	2023-04-20	09:19:42	10:04:01	10:04:01:908	122	3	TNT_Think_CSp	TNT_Think_CSp	0	5	0	0	0	0	5000	5	Cue32.jpg	-16	0	0	0	0	0	0
19	2023-04-20	09:19:42	10:04:02	10:04:02:418	122	4	TNT_Think_CSp	Intrusion	0	1000	3000	0	81	1	1493	1	How <b>often</b> did you <b>think</b> about the <b>scene</b>?   <center><br><b>NEVER (1)    BRIEFLY (2)   OFTEN (3) </b>	-16	0	0	0	0	0	0
19	2023-04-20	09:19:42	10:04:05	10:04:05:912	123	1	TNT_Object_CSm	fixation	0	5	1000	0	0	1	995	1	+	-8	0	0	0	0	0	0
19	2023-04-20	09:19:42	10:04:06	10:04:06:925	123	2	TNT_Object_CSm	Passive	0	5	0	0	0	0	1000	1	VIEW	-16	0	0	0	0	0	0
19	2023-04-20	09:19:42	10:04:11	10:04:11:942	123	3	TNT_Object_CSm	TNT_Object_CSm	0	1000	0	0	0	0	5000	4	Object8.jpg	-16	0	0	0	0	0	0
19	2023-04-20	09:19:42	10:04:13	10:04:13:941	124	1	TNT_Object_CSm	fixation	0	5	1000	0	0	1	995	1	+	-9	0	0	0	0	0	0
19	2023-04-20	09:19:42	10:04:14	10:04:14:959	124	2	TNT_Object_CSm	Passive	0	5	0	0	0	0	1000	1	VIEW	-16	0	0	0	0	0	0
19	2023-04-20	09:19:42	10:04:19	10:04:19:976	124	3	TNT_Object_CSm	TNT_Object_CSm	0	1500	0	0	0	0	5000	3	Object1.jpg	-16	0	0	0	0	0	0
19	2023-04-20	09:19:42	10:04:22	10:04:22:976	125	1	TNT_Think_CSp	fixation	0	5	1500	0	0	1	1495	1	+	-8	0	0	0	0	0	0
19	2023-04-20	09:19:42	10:04:23	10:04:23:993	125	2	TNT_Think_CSp	Think	0	5	0	0	0	0	1000	1	THINK	-16	0	0	0	0	0	0
19	2023-04-20	09:19:42	10:04:28	10:04:28:010	125	3	TNT_Think_CSp	TNT_Think_CSp	0	5	0	0	0	0	5000	6	Cue14.jpg	-16	0	0	0	0	0	0
19	2023-04-20	09:19:42	10:04:30	10:04:30:517	125	4	TNT_Think_CSp	Intrusion	0	1500	3000	0	0	0	1500	1	How <b>often</b> did you <b>think</b> about the <b>scene</b>?   <center><br><b>NEVER (1)    BRIEFLY (2)   OFTEN (3) </b>	-16	0	0	0	0	0	0
19	2023-04-20	09:19:42	10:04:32	10:04:32:514	126	1	TNT_NoThink_CSp	fixation	0	5	500	0	0	1	495	1	+	-9	0	0	0	0	0	0
19	2023-04-20	09:19:42	10:04:33	10:04:33:527	126	2	TNT_NoThink_CSp	NoThink	0	5	0	0	0	0	1000	1	DON'T THINK	-16	0	0	0	0	0	0
19	2023-04-20	09:19:42	10:04:38	10:04:38:544	126	3	TNT_NoThink_CSp	TNT_NoThink_CSp	0	5	0	0	0	0	5000	3	Cue9.jpg	-16	0	0	0	0	0	0
