subject	date	time	currenttime	currenttime_plus_ms	blocknum	trialnum	blockcode	trialcode	pretrialpause	posttrialpause	trialduration	trialtimeout	response	correct	latency	stimulusnumber1	stimulusitem1	stimulusonset1	stimulusnumber2	stimulusitem2	stimulusonset2	stimulusnumber3	stimulusitem3	stimulusonset3
11	2023-04-06	09:27:10	09:28:41	09:28:41:522	2	1	Reminder_NoThink_CSp	fixation	0	5	500	0	0	1	495	1	+	-16	0	0	0	0	0	0
11	2023-04-06	09:27:10	09:28:46	09:28:46:551	2	2	Reminder_NoThink_CSp	NoThink_CSp	0	5	0	0	0	0	5000	1	+	-16	2	Cue20.jpg	-16	2	Target20.jpg	-16
11	2023-04-06	09:27:10	09:28:52	09:28:52:716	2	3	Reminder_NoThink_CSp	valence	0	5	0	0	40	0	6080	1	I found these images to be...	-4	0	0	0	0	0	0
11	2023-04-06	09:27:10	09:29:02	09:29:02:633	2	4	Reminder_NoThink_CSp	expectancy	0	500	0	0	70	0	9840	1	When you saw the <b>object-scene</b>,   to what <b>degree (0-100%)</b> did you expect the <b>unpleasant sound to occur</b>?	-5	0	0	0	0	0	0
11	2023-04-06	09:27:10	09:29:04	09:29:04:135	3	1	Reminder_Objects_CSp	fixation	0	5	1000	0	0	1	995	1	+	-8	0	0	0	0	0	0
11	2023-04-06	09:27:10	09:29:09	09:29:09:152	3	2	Reminder_Objects_CSp	Objects_CSp	0	5	0	0	0	0	5000	4	Object2.jpg	-16	0	0	0	0	0	0
11	2023-04-06	09:27:10	09:29:26	09:29:26:034	3	3	Reminder_Objects_CSp	expectancy_object	0	1500	0	0	60	0	16832	1	When you saw the <b>object</b>,   to what <b>degree (0-100%)</b> did you expect the <b>unpleasant sound to occur</b>?	-16	0	0	0	0	0	0
11	2023-04-06	09:27:10	09:29:29	09:29:29:020	4	1	Reminder_Baseline_CSm	fixation	0	5	1500	0	0	1	1495	1	+	-8	0	0	0	0	0	0
11	2023-04-06	09:27:10	09:29:34	09:29:34:037	4	2	Reminder_Baseline_CSm	Baseline_CSm	0	5	0	0	0	0	5000	1	+	-16	5	Cue6.jpg	-16	5	Target6.jpg	-16
11	2023-04-06	09:27:10	09:29:43	09:29:43:152	4	3	Reminder_Baseline_CSm	valence	0	5	0	0	37	0	9067	1	I found these images to be...	-16	0	0	0	0	0	0
11	2023-04-06	09:27:10	09:29:54	09:29:54:403	4	4	Reminder_Baseline_CSm	expectancy	0	1000	0	0	40	0	11189	1	When you saw the <b>object-scene</b>,   to what <b>degree (0-100%)</b> did you expect the <b>unpleasant sound to occur</b>?	-7	0	0	0	0	0	0
11	2023-04-06	09:27:10	09:29:56	09:29:56:907	5	1	Reminder_NoThink_CSm	fixation	0	5	1500	0	0	1	1495	1	+	-8	0	0	0	0	0	0
11	2023-04-06	09:27:10	09:30:01	09:30:01:922	5	2	Reminder_NoThink_CSm	NoThink_CSm	0	5	0	0	0	0	5000	1	+	-16	3	Cue3.jpg	-16	3	Target3.jpg	-16
11	2023-04-06	09:27:10	09:30:06	09:30:06:570	5	3	Reminder_NoThink_CSm	valence	0	5	0	0	28	0	4622	1	I found these images to be...	-16	0	0	0	0	0	0
11	2023-04-06	09:27:10	09:30:15	09:30:15:838	5	4	Reminder_NoThink_CSm	expectancy	0	1500	0	0	32	0	9220	1	When you saw the <b>object-scene</b>,   to what <b>degree (0-100%)</b> did you expect the <b>unpleasant sound to occur</b>?	0	0	0	0	0	0	0
11	2023-04-06	09:27:10	09:30:18	09:30:18:337	6	1	Reminder_Baseline_CSm	fixation	0	5	1000	0	0	1	995	1	+	-14	0	0	0	0	0	0
11	2023-04-06	09:27:10	09:30:23	09:30:23:355	6	2	Reminder_Baseline_CSm	Baseline_CSm	0	5	0	0	0	0	5000	1	+	-16	4	Cue17.jpg	-16	4	Target17.jpg	-16
11	2023-04-06	09:27:10	09:30:30	09:30:30:488	6	3	Reminder_Baseline_CSm	valence	0	5	0	0	38	0	7084	1	I found these images to be...	-16	0	0	0	0	0	0
11	2023-04-06	09:27:10	09:30:38	09:30:38:372	6	4	Reminder_Baseline_CSm	expectancy	0	500	0	0	50	0	7845	1	When you saw the <b>object-scene</b>,   to what <b>degree (0-100%)</b> did you expect the <b>unpleasant sound to occur</b>?	-9	0	0	0	0	0	0
11	2023-04-06	09:27:10	09:30:39	09:30:39:371	7	1	Reminder_Baseline_CSp	fixation	0	5	500	0	0	1	495	1	+	-12	0	0	0	0	0	0
11	2023-04-06	09:27:10	09:30:44	09:30:44:392	7	2	Reminder_Baseline_CSp	Baseline_CSp	0	5	0	0	0	0	5000	1	+	-10	1	Cue11.jpg	-10	1	Target11.jpg	-10
11	2023-04-06	09:27:10	09:30:48	09:30:48:439	7	3	Reminder_Baseline_CSp	valence	0	5	0	0	30	0	4017	1	I found these images to be...	-16	0	0	0	0	0	0
11	2023-04-06	09:27:10	09:30:56	09:30:56:107	7	4	Reminder_Baseline_CSp	expectancy	0	1500	0	0	79	0	7622	1	When you saw the <b>object-scene</b>,   to what <b>degree (0-100%)</b> did you expect the <b>unpleasant sound to occur</b>?	0	0	0	0	0	0	0
11	2023-04-06	09:27:10	09:30:58	09:30:58:609	8	1	Reminder_Think_CSp	fixation	0	5	1000	0	0	1	995	1	+	-8	0	0	0	0	0	0
11	2023-04-06	09:27:10	09:31:03	09:31:03:626	8	2	Reminder_Think_CSp	Think_CSp	0	5	0	0	0	0	5000	1	+	-16	5	Cue13.jpg	-16	5	Target13.jpg	-16
11	2023-04-06	09:27:10	09:31:11	09:31:11:074	8	3	Reminder_Think_CSp	valence	0	5	0	0	30	0	7399	1	I found these images to be...	-16	0	0	0	0	0	0
11	2023-04-06	09:27:10	09:31:15	09:31:15:774	8	4	Reminder_Think_CSp	expectancy	0	1000	0	0	40	0	4634	1	When you saw the <b>object-scene</b>,   to what <b>degree (0-100%)</b> did you expect the <b>unpleasant sound to occur</b>?	-7	0	0	0	0	0	0
11	2023-04-06	09:27:10	09:31:18	09:31:18:277	9	1	Reminder_NoThink_CSp	fixation	0	5	1500	0	0	1	1495	1	+	-2	0	0	0	0	0	0
11	2023-04-06	09:27:10	09:31:23	09:31:23:294	9	2	Reminder_NoThink_CSp	NoThink_CSp	0	5	0	0	0	0	5000	1	+	-16	4	Cue5.jpg	-16	4	Target5.jpg	-16
11	2023-04-06	09:27:10	09:31:28	09:31:28:142	9	3	Reminder_NoThink_CSp	valence	0	5	0	0	28	0	4819	1	I found these images to be...	-16	0	0	0	0	0	0
11	2023-04-06	09:27:10	09:31:30	09:31:30:859	9	4	Reminder_NoThink_CSp	expectancy	0	1000	0	0	69	0	2672	1	When you saw the <b>object-scene</b>,   to what <b>degree (0-100%)</b> did you expect the <b>unpleasant sound to occur</b>?	0	0	0	0	0	0	0
11	2023-04-06	09:27:10	09:31:32	09:31:32:358	10	1	Reminder_NoThink_CSp	fixation	0	5	500	0	0	1	495	1	+	-13	0	0	0	0	0	0
11	2023-04-06	09:27:10	09:31:37	09:31:37:378	10	2	Reminder_NoThink_CSp	NoThink_CSp	0	5	0	0	0	0	5000	1	+	-16	3	Cue34.jpg	-16	3	Target34.jpg	-16
11	2023-04-06	09:27:10	09:31:40	09:31:40:743	10	3	Reminder_NoThink_CSp	valence	0	5	0	0	19	0	3311	1	I found these images to be...	-16	0	0	0	0	0	0
11	2023-04-06	09:27:10	09:31:46	09:31:46:826	10	4	Reminder_NoThink_CSp	expectancy	0	500	0	0	79	0	6029	1	When you saw the <b>object-scene</b>,   to what <b>degree (0-100%)</b> did you expect the <b>unpleasant sound to occur</b>?	-7	0	0	0	0	0	0
11	2023-04-06	09:27:10	09:31:48	09:31:48:825	11	1	Reminder_Objects_CSm	fixation	0	5	1500	0	0	1	1495	1	+	-15	0	0	0	0	0	0
11	2023-04-06	09:27:10	09:31:53	09:31:53:844	11	2	Reminder_Objects_CSm	Objects_CSm	0	5	0	0	0	0	5000	4	Object4.jpg	-14	0	0	0	0	0	0
11	2023-04-06	09:27:10	09:31:59	09:31:59:277	11	3	Reminder_Objects_CSm	expectancy_object	0	500	0	0	29	0	5411	1	When you saw the <b>object</b>,   to what <b>degree (0-100%)</b> did you expect the <b>unpleasant sound to occur</b>?	-16	0	0	0	0	0	0
11	2023-04-06	09:27:10	09:32:00	09:32:00:276	12	1	Reminder_Think_CSm	fixation	0	5	500	0	0	1	495	1	+	-15	0	0	0	0	0	0
11	2023-04-06	09:27:10	09:32:05	09:32:05:294	12	2	Reminder_Think_CSm	Think_CSm	0	5	0	0	0	0	5000	1	+	-13	5	Cue15.jpg	-13	5	Target15.jpg	-13
11	2023-04-06	09:27:10	09:32:11	09:32:11:061	12	3	Reminder_Think_CSm	valence	0	5	0	0	22	0	5744	1	I found these images to be...	-16	0	0	0	0	0	0
11	2023-04-06	09:27:10	09:32:19	09:32:19:695	12	4	Reminder_Think_CSm	expectancy	0	1500	0	0	33	0	8585	1	When you saw the <b>object-scene</b>,   to what <b>degree (0-100%)</b> did you expect the <b>unpleasant sound to occur</b>?	-10	0	0	0	0	0	0
11	2023-04-06	09:27:10	09:32:22	09:32:22:194	13	1	Reminder_NoThink_CSm	fixation	0	5	1000	0	0	1	995	1	+	-15	0	0	0	0	0	0
11	2023-04-06	09:27:10	09:32:27	09:32:27:215	13	2	Reminder_NoThink_CSm	NoThink_CSm	0	5	0	0	0	0	5000	1	+	-13	2	Cue16.jpg	-13	2	Target16.jpg	-13
11	2023-04-06	09:27:10	09:32:33	09:32:33:179	13	3	Reminder_NoThink_CSm	valence	0	5	0	0	34	0	5938	1	I found these images to be...	-16	0	0	0	0	0	0
11	2023-04-06	09:27:10	09:32:37	09:32:37:129	13	4	Reminder_NoThink_CSm	expectancy	0	500	0	0	70	0	3883	1	When you saw the <b>object-scene</b>,   to what <b>degree (0-100%)</b> did you expect the <b>unpleasant sound to occur</b>?	0	0	0	0	0	0	0
11	2023-04-06	09:27:10	09:32:39	09:32:39:116	14	1	Reminder_Objects_CSm	fixation	0	5	1500	0	0	1	1495	1	+	-8	0	0	0	0	0	0
11	2023-04-06	09:27:10	09:32:44	09:32:44:132	14	2	Reminder_Objects_CSm	Objects_CSm	0	5	0	0	0	0	5000	1	Object8.jpg	-16	0	0	0	0	0	0
11	2023-04-06	09:27:10	09:32:51	09:32:51:130	14	3	Reminder_Objects_CSm	expectancy_object	0	1000	0	0	60	0	6973	1	When you saw the <b>object</b>,   to what <b>degree (0-100%)</b> did you expect the <b>unpleasant sound to occur</b>?	-16	0	0	0	0	0	0
11	2023-04-06	09:27:10	09:32:52	09:32:52:633	15	1	Reminder_Think_CSp	fixation	0	5	500	0	0	1	495	1	+	-9	0	0	0	0	0	0
11	2023-04-06	09:27:10	09:32:57	09:32:57:650	15	2	Reminder_Think_CSp	Think_CSp	0	5	0	0	0	0	5000	1	+	-16	2	Cue21.jpg	-16	2	Target21.jpg	-16
11	2023-04-06	09:27:10	09:33:01	09:33:01:431	15	3	Reminder_Think_CSp	valence	0	5	0	0	30	0	3759	1	I found these images to be...	-16	0	0	0	0	0	0
11	2023-04-06	09:27:10	09:33:05	09:33:05:898	15	4	Reminder_Think_CSp	expectancy	0	1500	0	0	86	0	4398	1	When you saw the <b>object-scene</b>,   to what <b>degree (0-100%)</b> did you expect the <b>unpleasant sound to occur</b>?	0	0	0	0	0	0	0
11	2023-04-06	09:27:10	09:33:08	09:33:08:384	16	1	Reminder_Baseline_CSm	fixation	0	5	1000	0	0	1	995	1	+	-9	0	0	0	0	0	0
11	2023-04-06	09:27:10	09:33:13	09:33:13:401	16	2	Reminder_Baseline_CSm	Baseline_CSm	0	5	0	0	0	0	5000	1	+	-16	2	Cue18.jpg	-16	2	Target18.jpg	-16
11	2023-04-06	09:27:10	09:33:16	09:33:16:765	16	3	Reminder_Baseline_CSm	valence	0	5	0	0	1	0	3336	1	I found these images to be...	-16	0	0	0	0	0	0
11	2023-04-06	09:27:10	09:33:21	09:33:21:399	16	4	Reminder_Baseline_CSm	expectancy	0	1000	0	0	75	0	4585	1	When you saw the <b>object-scene</b>,   to what <b>degree (0-100%)</b> did you expect the <b>unpleasant sound to occur</b>?	0	0	0	0	0	0	0
11	2023-04-06	09:27:10	09:33:23	09:33:23:397	17	1	PracticeItems_Think	fixation	0	5	1000	0	0	1	995	1	+	-15	0	0	0	0	0	0
11	2023-04-06	09:27:10	09:33:28	09:33:28:416	17	2	PracticeItems_Think	PracticeItems_Think	0	5	0	0	0	0	5000	1	+	-14	2	Cue38.jpg	-14	2	Target38.jpg	-14
11	2023-04-06	09:27:10	09:33:32	09:33:32:883	17	3	PracticeItems_Think	valence	0	5	0	0	1	0	4439	1	I found these images to be...	-16	0	0	0	0	0	0
11	2023-04-06	09:27:10	09:33:37	09:33:37:266	17	4	PracticeItems_Think	expectancy	0	1500	0	0	69	0	4347	1	When you saw the <b>object-scene</b>,   to what <b>degree (0-100%)</b> did you expect the <b>unpleasant sound to occur</b>?	-9	0	0	0	0	0	0
11	2023-04-06	09:27:10	09:33:39	09:33:39:265	18	1	Reminder_Objects_CSp	fixation	0	5	500	0	0	1	495	1	+	-14	0	0	0	0	0	0
11	2023-04-06	09:27:10	09:33:44	09:33:44:283	18	2	Reminder_Objects_CSp	Objects_CSp	0	5	0	0	0	0	5000	1	Object3.jpg	-14	0	0	0	0	0	0
11	2023-04-06	09:27:10	09:33:49	09:33:49:367	18	3	Reminder_Objects_CSp	expectancy_object	0	1500	0	0	41	0	5059	1	When you saw the <b>object</b>,   to what <b>degree (0-100%)</b> did you expect the <b>unpleasant sound to occur</b>?	-16	0	0	0	0	0	0
11	2023-04-06	09:27:10	09:33:52	09:33:52:366	19	1	Reminder_NoThink_CSp	fixation	0	5	1500	0	0	1	1495	1	+	-14	0	0	0	0	0	0
11	2023-04-06	09:27:10	09:33:57	09:33:57:384	19	2	Reminder_NoThink_CSp	NoThink_CSp	0	5	0	0	0	0	5000	1	+	-13	1	Cue36.jpg	-13	1	Target36.jpg	-13
11	2023-04-06	09:27:10	09:34:02	09:34:02:335	19	3	Reminder_NoThink_CSp	valence	0	5	0	0	7	0	4918	1	I found these images to be...	-16	0	0	0	0	0	0
11	2023-04-06	09:27:10	09:34:07	09:34:07:01	19	4	Reminder_NoThink_CSp	expectancy	0	500	0	0	39	0	5623	1	When you saw the <b>object-scene</b>,   to what <b>degree (0-100%)</b> did you expect the <b>unpleasant sound to occur</b>?	-11	0	0	0	0	0	0
11	2023-04-06	09:27:10	09:34:08	09:34:08:04	20	1	Reminder_Baseline_CSm	fixation	0	5	500	0	0	1	495	1	+	-7	0	0	0	0	0	0
11	2023-04-06	09:27:10	09:34:14	09:34:14:021	20	2	Reminder_Baseline_CSm	Baseline_CSm	0	5	0	0	0	0	5000	1	+	-16	6	Cue30.jpg	-16	6	Target30.jpg	-16
11	2023-04-06	09:27:10	09:34:17	09:34:17:835	20	3	Reminder_Baseline_CSm	valence	0	5	0	0	10	0	3787	1	I found these images to be...	-16	0	0	0	0	0	0
11	2023-04-06	09:27:10	09:34:24	09:34:24:919	20	4	Reminder_Baseline_CSm	expectancy	0	1000	0	0	27	0	7042	1	When you saw the <b>object-scene</b>,   to what <b>degree (0-100%)</b> did you expect the <b>unpleasant sound to occur</b>?	0	0	0	0	0	0	0
11	2023-04-06	09:27:10	09:34:27	09:34:27:422	21	1	Reminder_Objects_CSp	fixation	0	5	1500	0	0	1	1495	1	+	-8	0	0	0	0	0	0
11	2023-04-06	09:27:10	09:34:32	09:34:32:438	21	2	Reminder_Objects_CSp	Objects_CSp	0	5	0	0	0	0	5000	2	Object5.jpg	-16	0	0	0	0	0	0
11	2023-04-06	09:27:10	09:34:39	09:34:39:953	21	3	Reminder_Objects_CSp	expectancy_object	0	1000	0	0	80	0	7465	1	When you saw the <b>object</b>,   to what <b>degree (0-100%)</b> did you expect the <b>unpleasant sound to occur</b>?	-16	0	0	0	0	0	0
11	2023-04-06	09:27:10	09:34:41	09:34:41:939	22	1	Reminder_Baseline_CSp	fixation	0	5	1000	0	0	1	995	1	+	-9	0	0	0	0	0	0
11	2023-04-06	09:27:10	09:34:46	09:34:46:956	22	2	Reminder_Baseline_CSp	Baseline_CSp	0	5	0	0	0	0	5000	1	+	-16	2	Cue7.jpg	-16	2	Target7.jpg	-16
11	2023-04-06	09:27:10	09:34:50	09:34:50:321	22	3	Reminder_Baseline_CSp	valence	0	5	0	0	1	0	3340	1	I found these images to be...	-16	0	0	0	0	0	0
11	2023-04-06	09:27:10	09:34:54	09:34:54:168	22	4	Reminder_Baseline_CSp	expectancy	0	500	0	0	80	0	3772	1	When you saw the <b>object-scene</b>,   to what <b>degree (0-100%)</b> did you expect the <b>unpleasant sound to occur</b>?	0	0	0	0	0	0	0
11	2023-04-06	09:27:10	09:34:56	09:34:56:156	23	1	Reminder_Baseline_CSm	fixation	0	5	1500	0	0	1	1495	1	+	-8	0	0	0	0	0	0
11	2023-04-06	09:27:10	09:35:01	09:35:01:174	23	2	Reminder_Baseline_CSm	Baseline_CSm	0	5	0	0	0	0	5000	1	+	-16	3	Cue14.jpg	-16	3	Target14.jpg	-16
11	2023-04-06	09:27:10	09:35:05	09:35:05:655	23	3	Reminder_Baseline_CSm	valence	0	5	0	0	20	0	4459	1	I found these images to be...	-16	0	0	0	0	0	0
11	2023-04-06	09:27:10	09:35:08	09:35:08:289	23	4	Reminder_Baseline_CSm	expectancy	0	1500	0	0	31	0	2567	1	When you saw the <b>object-scene</b>,   to what <b>degree (0-100%)</b> did you expect the <b>unpleasant sound to occur</b>?	0	0	0	0	0	0	0
11	2023-04-06	09:27:10	09:35:10	09:35:10:770	24	1	Reminder_Think_CSm	fixation	0	5	1000	0	0	1	995	1	+	-15	0	0	0	0	0	0
11	2023-04-06	09:27:10	09:35:15	09:35:15:789	24	2	Reminder_Think_CSm	Think_CSm	0	5	0	0	0	0	5000	1	+	-13	4	Cue28.jpg	-13	4	Target28.jpg	-13
11	2023-04-06	09:27:10	09:35:22	09:35:22:540	24	3	Reminder_Think_CSm	valence	0	5	0	0	30	0	6729	1	I found these images to be...	-16	0	0	0	0	0	0
11	2023-04-06	09:27:10	09:35:25	09:35:25:673	24	4	Reminder_Think_CSm	expectancy	0	1000	0	0	48	0	3090	1	When you saw the <b>object-scene</b>,   to what <b>degree (0-100%)</b> did you expect the <b>unpleasant sound to occur</b>?	-10	0	0	0	0	0	0
11	2023-04-06	09:27:10	09:35:27	09:35:27:171	25	1	Reminder_Think_CSp	fixation	0	5	500	0	0	1	495	1	+	-14	0	0	0	0	0	0
11	2023-04-06	09:27:10	09:35:32	09:35:32:190	25	2	Reminder_Think_CSp	Think_CSp	0	5	0	0	0	0	5000	1	+	-14	3	Cue22.jpg	-14	3	Target22.jpg	-14
11	2023-04-06	09:27:10	09:35:35	09:35:35:774	25	3	Reminder_Think_CSp	valence	0	5	0	0	28	0	3552	1	I found these images to be...	-16	0	0	0	0	0	0
11	2023-04-06	09:27:10	09:35:40	09:35:40:974	25	4	Reminder_Think_CSp	expectancy	0	1500	0	0	35	0	5127	1	When you saw the <b>object-scene</b>,   to what <b>degree (0-100%)</b> did you expect the <b>unpleasant sound to occur</b>?	-10	0	0	0	0	0	0
11	2023-04-06	09:27:10	09:35:43	09:35:43:961	26	1	Reminder_Think_CSp	fixation	0	5	1500	0	0	1	1495	1	+	-8	0	0	0	0	0	0
11	2023-04-06	09:27:10	09:35:48	09:35:48:977	26	2	Reminder_Think_CSp	Think_CSp	0	5	0	0	0	0	5000	1	+	-16	1	Cue10.jpg	-16	1	Target10.jpg	-16
11	2023-04-06	09:27:10	09:35:54	09:35:54:258	26	3	Reminder_Think_CSp	valence	0	5	0	0	8	0	5232	1	I found these images to be...	-16	0	0	0	0	0	0
11	2023-04-06	09:27:10	09:35:58	09:35:58:075	26	4	Reminder_Think_CSp	expectancy	0	1000	0	0	75	0	3731	1	When you saw the <b>object-scene</b>,   to what <b>degree (0-100%)</b> did you expect the <b>unpleasant sound to occur</b>?	-7	0	0	0	0	0	0
11	2023-04-06	09:27:10	09:35:59	09:35:59:562	27	1	PracticeItems_Think	fixation	0	5	500	0	0	1	495	1	+	-8	0	0	0	0	0	0
11	2023-04-06	09:27:10	09:36:04	09:36:04:578	27	2	PracticeItems_Think	PracticeItems_Think	0	5	0	0	0	0	5000	1	+	-16	1	Cue37.jpg	-16	1	Target37.jpg	-16
11	2023-04-06	09:27:10	09:36:09	09:36:09:842	27	3	PracticeItems_Think	valence	0	5	0	0	23	0	5215	1	I found these images to be...	-16	0	0	0	0	0	0
11	2023-04-06	09:27:10	09:36:19	09:36:19:559	27	4	PracticeItems_Think	expectancy	0	500	0	0	69	0	9626	1	When you saw the <b>object-scene</b>,   to what <b>degree (0-100%)</b> did you expect the <b>unpleasant sound to occur</b>?	-7	0	0	0	0	0	0
11	2023-04-06	09:27:10	09:36:21	09:36:21:045	28	1	Reminder_NoThink_CSp	fixation	0	5	1000	0	0	1	995	1	+	-8	0	0	0	0	0	0
11	2023-04-06	09:27:10	09:36:26	09:36:26:062	28	2	Reminder_NoThink_CSp	NoThink_CSp	0	5	0	0	0	0	5000	1	+	-16	6	Cue1.jpg	-16	6	Target1.jpg	-16
11	2023-04-06	09:27:10	09:36:32	09:36:32:927	28	3	Reminder_NoThink_CSp	valence	0	5	0	0	20	0	6843	1	I found these images to be...	-16	0	0	0	0	0	0
11	2023-04-06	09:27:10	09:36:36	09:36:36:294	28	4	Reminder_NoThink_CSp	expectancy	0	500	0	0	91	0	3327	1	When you saw the <b>object-scene</b>,   to what <b>degree (0-100%)</b> did you expect the <b>unpleasant sound to occur</b>?	0	0	0	0	0	0	0
11	2023-04-06	09:27:10	09:36:37	09:36:37:793	29	1	Reminder_Think_CSm	fixation	0	5	1000	0	0	1	995	1	+	-15	0	0	0	0	0	0
11	2023-04-06	09:27:10	09:36:42	09:36:42:811	29	2	Reminder_Think_CSm	Think_CSm	0	5	0	0	0	0	5000	1	+	-10	3	Cue35.jpg	-10	3	Target35.jpg	-10
11	2023-04-06	09:27:10	09:36:51	09:36:51:211	29	3	Reminder_Think_CSm	valence	0	5	0	0	26	0	8372	1	I found these images to be...	-16	0	0	0	0	0	0
11	2023-04-06	09:27:10	09:36:53	09:36:53:578	29	4	Reminder_Think_CSm	expectancy	0	1000	0	0	70	0	2322	1	When you saw the <b>object-scene</b>,   to what <b>degree (0-100%)</b> did you expect the <b>unpleasant sound to occur</b>?	-10	0	0	0	0	0	0
11	2023-04-06	09:27:10	09:36:55	09:36:55:077	30	1	Reminder_Think_CSm	fixation	0	5	500	0	0	1	495	1	+	-15	0	0	0	0	0	0
11	2023-04-06	09:27:10	09:37:00	09:37:00:095	30	2	Reminder_Think_CSm	Think_CSm	0	5	0	0	0	0	5000	1	+	-13	2	Cue32.jpg	-13	2	Target32.jpg	-13
11	2023-04-06	09:27:10	09:37:07	09:37:07:412	30	3	Reminder_Think_CSm	valence	0	5	0	0	19	0	7286	1	I found these images to be...	-16	0	0	0	0	0	0
11	2023-04-06	09:27:10	09:37:15	09:37:15:580	30	4	Reminder_Think_CSm	expectancy	0	1500	0	0	56	0	8121	1	When you saw the <b>object-scene</b>,   to what <b>degree (0-100%)</b> did you expect the <b>unpleasant sound to occur</b>?	-10	0	0	0	0	0	0
11	2023-04-06	09:27:10	09:37:18	09:37:18:579	31	1	Reminder_NoThink_CSp	fixation	0	5	1500	0	0	1	1495	1	+	-13	0	0	0	0	0	0
11	2023-04-06	09:27:10	09:37:23	09:37:23:599	31	2	Reminder_NoThink_CSp	NoThink_CSp	0	5	0	0	0	0	5000	1	+	-16	5	Cue2.jpg	-16	5	Target2.jpg	-16
11	2023-04-06	09:27:10	09:37:27	09:37:27:414	31	3	Reminder_NoThink_CSp	valence	0	5	0	0	1	0	3762	1	I found these images to be...	-16	0	0	0	0	0	0
11	2023-04-06	09:27:10	09:37:30	09:37:30:814	31	4	Reminder_NoThink_CSp	expectancy	0	1500	0	0	74	0	3328	1	When you saw the <b>object-scene</b>,   to what <b>degree (0-100%)</b> did you expect the <b>unpleasant sound to occur</b>?	-8	0	0	0	0	0	0
11	2023-04-06	09:27:10	09:37:33	09:37:33:800	32	1	Reminder_Baseline_CSp	fixation	0	5	1500	0	0	1	1495	1	+	-8	0	0	0	0	0	0
11	2023-04-06	09:27:10	09:37:38	09:37:38:817	32	2	Reminder_Baseline_CSp	Baseline_CSp	0	5	0	0	0	0	5000	1	+	-16	5	Cue27.jpg	-16	5	Target27.jpg	-16
11	2023-04-06	09:27:10	09:37:44	09:37:44:648	32	3	Reminder_Baseline_CSp	valence	0	5	0	0	23	0	5808	1	I found these images to be...	-16	0	0	0	0	0	0
11	2023-04-06	09:27:10	09:37:49	09:37:49:515	32	4	Reminder_Baseline_CSp	expectancy	0	1000	0	0	75	0	4798	1	When you saw the <b>object-scene</b>,   to what <b>degree (0-100%)</b> did you expect the <b>unpleasant sound to occur</b>?	1	0	0	0	0	0	0
11	2023-04-06	09:27:10	09:37:50	09:37:50:01	33	1	Reminder_Baseline_CSp	fixation	0	5	500	0	0	1	495	1	+	-8	0	0	0	0	0	0
11	2023-04-06	09:27:10	09:37:56	09:37:56:018	33	2	Reminder_Baseline_CSp	Baseline_CSp	0	5	0	0	0	0	5000	1	+	-16	4	Cue9.jpg	-16	4	Target9.jpg	-16
11	2023-04-06	09:27:10	09:37:59	09:37:59:116	33	3	Reminder_Baseline_CSp	valence	0	5	0	0	37	0	3071	1	I found these images to be...	-16	0	0	0	0	0	0
11	2023-04-06	09:27:10	09:38:02	09:38:02:632	33	4	Reminder_Baseline_CSp	expectancy	0	500	0	0	60	0	3474	1	When you saw the <b>object-scene</b>,   to what <b>degree (0-100%)</b> did you expect the <b>unpleasant sound to occur</b>?	0	0	0	0	0	0	0
11	2023-04-06	09:27:10	09:38:04	09:38:04:131	34	1	Reminder_Think_CSm	fixation	0	5	1000	0	0	1	995	1	+	-15	0	0	0	0	0	0
11	2023-04-06	09:27:10	09:38:09	09:38:09:150	34	2	Reminder_Think_CSm	Think_CSm	0	5	0	0	0	0	5000	1	+	-13	1	Cue23.jpg	-13	1	Target23.jpg	-13
11	2023-04-06	09:27:10	09:38:17	09:38:17:983	34	3	Reminder_Think_CSm	valence	0	5	0	0	28	0	8809	1	I found these images to be...	-16	0	0	0	0	0	0
11	2023-04-06	09:27:10	09:38:23	09:38:23:900	34	4	Reminder_Think_CSm	expectancy	0	1500	0	0	41	0	5870	1	When you saw the <b>object-scene</b>,   to what <b>degree (0-100%)</b> did you expect the <b>unpleasant sound to occur</b>?	0	0	0	0	0	0	0
11	2023-04-06	09:27:10	09:38:26	09:38:26:899	35	1	Reminder_Think_CSm	fixation	0	5	1500	0	0	1	1495	1	+	-14	0	0	0	0	0	0
11	2023-04-06	09:27:10	09:38:31	09:38:31:917	35	2	Reminder_Think_CSm	Think_CSm	0	5	0	0	0	0	5000	1	+	-13	6	Cue33.jpg	-13	6	Target33.jpg	-13
11	2023-04-06	09:27:10	09:38:36	09:38:36:401	35	3	Reminder_Think_CSm	valence	0	5	0	0	19	0	4465	1	I found these images to be...	-16	0	0	0	0	0	0
11	2023-04-06	09:27:10	09:38:39	09:38:39:768	35	4	Reminder_Think_CSm	expectancy	0	500	0	0	11	0	3325	1	When you saw the <b>object-scene</b>,   to what <b>degree (0-100%)</b> did you expect the <b>unpleasant sound to occur</b>?	-10	0	0	0	0	0	0
11	2023-04-06	09:27:10	09:38:40	09:38:40:767	36	1	Reminder_Baseline_CSm	fixation	0	5	500	0	0	1	495	1	+	-15	0	0	0	0	0	0
11	2023-04-06	09:27:10	09:38:45	09:38:45:785	36	2	Reminder_Baseline_CSm	Baseline_CSm	0	5	0	0	0	0	5000	1	+	-16	1	Cue12.jpg	-16	1	Target12.jpg	-16
11	2023-04-06	09:27:10	09:38:49	09:38:49:735	36	3	Reminder_Baseline_CSm	valence	0	5	0	0	31	0	3917	1	I found these images to be...	-16	0	0	0	0	0	0
11	2023-04-06	09:27:10	09:38:57	09:38:57:202	36	4	Reminder_Baseline_CSm	expectancy	0	1000	0	0	41	0	7431	1	When you saw the <b>object-scene</b>,   to what <b>degree (0-100%)</b> did you expect the <b>unpleasant sound to occur</b>?	-9	0	0	0	0	0	0
11	2023-04-06	09:27:10	09:38:59	09:38:59:201	37	1	Reminder_Objects_CSp	fixation	0	5	1000	0	0	1	995	1	+	-15	0	0	0	0	0	0
11	2023-04-06	09:27:10	09:39:04	09:39:04:222	37	2	Reminder_Objects_CSp	Objects_CSp	0	5	0	0	0	0	5000	3	Object6.jpg	-12	0	0	0	0	0	0
11	2023-04-06	09:27:10	09:39:12	09:39:12:637	37	3	Reminder_Objects_CSp	expectancy_object	0	500	0	0	59	0	8363	1	When you saw the <b>object</b>,   to what <b>degree (0-100%)</b> did you expect the <b>unpleasant sound to occur</b>?	-16	0	0	0	0	0	0
11	2023-04-06	09:27:10	09:39:14	09:39:14:623	38	1	Reminder_Baseline_CSp	fixation	0	5	1500	0	0	1	1495	1	+	-9	0	0	0	0	0	0
11	2023-04-06	09:27:10	09:39:19	09:39:19:640	38	2	Reminder_Baseline_CSp	Baseline_CSp	0	5	0	0	0	0	5000	1	+	-16	6	Cue29.jpg	-16	6	Target29.jpg	-16
11	2023-04-06	09:27:10	09:39:25	09:39:25:504	38	3	Reminder_Baseline_CSp	valence	0	5	0	0	27	0	5840	1	I found these images to be...	-16	0	0	0	0	0	0
11	2023-04-06	09:27:10	09:39:33	09:39:33:538	38	4	Reminder_Baseline_CSp	expectancy	0	500	0	0	90	0	7990	1	When you saw the <b>object-scene</b>,   to what <b>degree (0-100%)</b> did you expect the <b>unpleasant sound to occur</b>?	0	0	0	0	0	0	0
11	2023-04-06	09:27:10	09:39:34	09:39:34:540	39	1	Reminder_Think_CSp	fixation	0	5	500	0	0	1	495	1	+	-9	0	0	0	0	0	0
11	2023-04-06	09:27:10	09:39:39	09:39:39:557	39	2	Reminder_Think_CSp	Think_CSp	0	5	0	0	0	0	5000	1	+	-16	4	Cue31.jpg	-16	4	Target31.jpg	-16
11	2023-04-06	09:27:10	09:39:43	09:39:43:688	39	3	Reminder_Think_CSp	valence	0	5	0	0	5	0	4084	1	I found these images to be...	-16	0	0	0	0	0	0
11	2023-04-06	09:27:10	09:39:47	09:39:47:056	39	4	Reminder_Think_CSp	expectancy	0	1500	0	0	80	0	3309	1	When you saw the <b>object-scene</b>,   to what <b>degree (0-100%)</b> did you expect the <b>unpleasant sound to occur</b>?	-7	0	0	0	0	0	0
11	2023-04-06	09:27:10	09:39:49	09:39:49:554	40	1	PracticeItems_NoThink	fixation	0	5	1000	0	0	1	995	1	+	-15	0	0	0	0	0	0
11	2023-04-06	09:27:10	09:39:54	09:39:54:575	40	2	PracticeItems_NoThink	PracticeItems_NoThink	0	5	0	0	0	0	5000	1	+	-10	2	Cue40.jpg	-10	2	Target40.jpg	-10
11	2023-04-06	09:27:10	09:39:58	09:39:58:856	40	3	PracticeItems_NoThink	valence	0	5	0	0	27	0	4258	1	I found these images to be...	-16	0	0	0	0	0	0
11	2023-04-06	09:27:10	09:40:03	09:40:03:06	40	4	PracticeItems_NoThink	expectancy	0	1000	0	0	46	0	5109	1	When you saw the <b>object-scene</b>,   to what <b>degree (0-100%)</b> did you expect the <b>unpleasant sound to occur</b>?	1	0	0	0	0	0	0
11	2023-04-06	09:27:10	09:40:05	09:40:05:05	41	1	Reminder_Objects_CSm	fixation	0	5	1000	0	0	1	995	1	+	-15	0	0	0	0	0	0
11	2023-04-06	09:27:10	09:40:11	09:40:11:024	41	2	Reminder_Objects_CSm	Objects_CSm	0	5	0	0	0	0	5000	3	Object7.jpg	-14	0	0	0	0	0	0
11	2023-04-06	09:27:10	09:40:14	09:40:14:340	41	3	Reminder_Objects_CSm	expectancy_object	0	500	0	0	40	0	3286	1	When you saw the <b>object</b>,   to what <b>degree (0-100%)</b> did you expect the <b>unpleasant sound to occur</b>?	-16	0	0	0	0	0	0
11	2023-04-06	09:27:10	09:40:15	09:40:15:339	42	1	Reminder_Think_CSp	fixation	0	5	500	0	0	1	495	1	+	-15	0	0	0	0	0	0
11	2023-04-06	09:27:10	09:40:20	09:40:20:357	42	2	Reminder_Think_CSp	Think_CSp	0	5	0	0	0	0	5000	1	+	-13	6	Cue24.jpg	-13	6	Target24.jpg	-13
11	2023-04-06	09:27:10	09:40:23	09:40:23:274	42	3	Reminder_Think_CSp	valence	0	5	0	0	37	0	2896	1	I found these images to be...	-9	0	0	0	0	0	0
11	2023-04-06	09:27:10	09:40:26	09:40:26:524	42	4	Reminder_Think_CSp	expectancy	0	1500	0	0	90	0	3212	1	When you saw the <b>object-scene</b>,   to what <b>degree (0-100%)</b> did you expect the <b>unpleasant sound to occur</b>?	-12	0	0	0	0	0	0
11	2023-04-06	09:27:10	09:40:29	09:40:29:523	43	1	PracticeItems_NoThink	fixation	0	5	1500	0	0	1	1495	1	+	-15	0	0	0	0	0	0
11	2023-04-06	09:27:10	09:40:34	09:40:34:542	43	2	PracticeItems_NoThink	PracticeItems_NoThink	0	5	0	0	0	0	5000	1	+	-13	1	Cue39.jpg	-13	1	Target39.jpg	-13
11	2023-04-06	09:27:10	09:40:39	09:40:39:758	43	3	PracticeItems_NoThink	valence	0	5	0	0	18	0	5193	1	I found these images to be...	-16	0	0	0	0	0	0
11	2023-04-06	09:27:10	09:40:56	09:40:56:243	43	4	PracticeItems_NoThink	expectancy	0	1000	0	0	66	0	16438	1	When you saw the <b>object-scene</b>,   to what <b>degree (0-100%)</b> did you expect the <b>unpleasant sound to occur</b>?	-10	0	0	0	0	0	0
11	2023-04-06	09:27:10	09:40:58	09:40:58:746	44	1	Reminder_NoThink_CSm	fixation	0	5	1500	0	0	1	1495	1	+	-8	0	0	0	0	0	0
11	2023-04-06	09:27:10	09:41:03	09:41:03:763	44	2	Reminder_NoThink_CSm	NoThink_CSm	0	5	0	0	0	0	5000	1	+	-16	1	Cue25.jpg	-16	1	Target25.jpg	-16
11	2023-04-06	09:27:10	09:41:06	09:41:06:010	44	3	Reminder_NoThink_CSm	valence	0	5	0	0	12	0	3197	1	I found these images to be...	-16	0	0	0	0	0	0
11	2023-04-06	09:27:10	09:41:11	09:41:11:310	44	4	Reminder_NoThink_CSm	expectancy	0	500	0	0	41	0	4241	1	When you saw the <b>object-scene</b>,   to what <b>degree (0-100%)</b> did you expect the <b>unpleasant sound to occur</b>?	-7	0	0	0	0	0	0
11	2023-04-06	09:27:10	09:41:12	09:41:12:313	45	1	Reminder_NoThink_CSm	fixation	0	5	500	0	0	1	495	1	+	-8	0	0	0	0	0	0
11	2023-04-06	09:27:10	09:41:17	09:41:17:330	45	2	Reminder_NoThink_CSm	NoThink_CSm	0	5	0	0	0	0	5000	1	+	-16	4	Cue19.jpg	-16	4	Target19.jpg	-16
11	2023-04-06	09:27:10	09:41:20	09:41:20:811	45	3	Reminder_NoThink_CSm	valence	0	5	0	0	24	0	3431	1	I found these images to be...	-16	0	0	0	0	0	0
11	2023-04-06	09:27:10	09:41:24	09:41:24:345	45	4	Reminder_NoThink_CSm	expectancy	0	1000	0	0	62	0	3449	1	When you saw the <b>object-scene</b>,   to what <b>degree (0-100%)</b> did you expect the <b>unpleasant sound to occur</b>?	-7	0	0	0	0	0	0
11	2023-04-06	09:27:10	09:41:26	09:41:26:326	46	1	Reminder_Baseline_CSp	fixation	0	5	1000	0	0	1	995	1	+	-15	0	0	0	0	0	0
11	2023-04-06	09:27:10	09:41:31	09:41:31:345	46	2	Reminder_Baseline_CSp	Baseline_CSp	0	5	0	0	0	0	5000	1	+	-14	3	Cue8.jpg	-14	3	Target8.jpg	-14
11	2023-04-06	09:27:10	09:41:39	09:41:39:429	46	3	Reminder_Baseline_CSp	valence	0	5	0	0	21	0	8028	1	I found these images to be...	-16	0	0	0	0	0	0
11	2023-04-06	09:27:10	09:41:41	09:41:41:996	46	4	Reminder_Baseline_CSp	expectancy	0	1500	0	0	69	0	2511	1	When you saw the <b>object-scene</b>,   to what <b>degree (0-100%)</b> did you expect the <b>unpleasant sound to occur</b>?	-7	0	0	0	0	0	0
11	2023-04-06	09:27:10	09:41:43	09:41:43:994	47	1	Reminder_NoThink_CSm	fixation	0	5	500	0	0	1	495	1	+	-14	0	0	0	0	0	0
11	2023-04-06	09:27:10	09:41:49	09:41:49:013	47	2	Reminder_NoThink_CSm	NoThink_CSm	0	5	0	0	0	0	5000	1	+	-13	5	Cue26.jpg	-13	5	Target26.jpg	-13
11	2023-04-06	09:27:10	09:41:51	09:41:51:913	47	3	Reminder_NoThink_CSm	valence	0	5	0	0	28	0	2850	1	I found these images to be...	-16	0	0	0	0	0	0
11	2023-04-06	09:27:10	09:41:57	09:41:57:480	47	4	Reminder_NoThink_CSm	expectancy	0	500	0	0	42	0	5532	1	When you saw the <b>object-scene</b>,   to what <b>degree (0-100%)</b> did you expect the <b>unpleasant sound to occur</b>?	-9	0	0	0	0	0	0
11	2023-04-06	09:27:10	09:41:58	09:41:58:978	48	1	Reminder_NoThink_CSm	fixation	0	5	1000	0	0	1	995	1	+	-15	0	0	0	0	0	0
11	2023-04-06	09:27:10	09:42:03	09:42:03:997	48	2	Reminder_NoThink_CSm	NoThink_CSm	0	5	0	0	0	0	5000	1	+	-13	6	Cue4.jpg	-13	6	Target4.jpg	-13
11	2023-04-06	09:27:10	09:42:07	09:42:07:397	48	3	Reminder_NoThink_CSm	valence	0	5	0	0	23	0	3369	1	I found these images to be...	-16	0	0	0	0	0	0
11	2023-04-06	09:27:10	09:42:10	09:42:10:964	48	4	Reminder_NoThink_CSm	expectancy	0	1500	0	0	60	0	3521	1	When you saw the <b>object-scene</b>,   to what <b>degree (0-100%)</b> did you expect the <b>unpleasant sound to occur</b>?	-9	0	0	0	0	0	0
11	2023-04-06	09:27:10	09:42:13	09:42:13:963	49	1	Reminder_Objects_CSm	fixation	0	5	1500	0	0	1	1495	1	+	-15	0	0	0	0	0	0
11	2023-04-06	09:27:10	09:42:18	09:42:18:981	49	2	Reminder_Objects_CSm	Objects_CSm	0	5	0	0	0	0	5000	2	Object1.jpg	-14	0	0	0	0	0	0
11	2023-04-06	09:27:10	09:42:22	09:42:22:331	49	3	Reminder_Objects_CSm	expectancy_object	0	1500	0	0	30	0	3321	1	When you saw the <b>object</b>,   to what <b>degree (0-100%)</b> did you expect the <b>unpleasant sound to occur</b>?	-16	0	0	0	0	0	0
11	2023-04-06	09:27:10	09:47:56	09:47:56:502	2	1	Practice_NoThink	fixation	0	5	1500	0	0	1	1495	1	+	-8	0	0	0	0	0	0
11	2023-04-06	09:27:10	09:47:57	09:47:57:518	2	2	Practice_NoThink	NoThink	0	5	0	0	0	0	1000	1	DON'T THINK	-16	0	0	0	0	0	0
11	2023-04-06	09:27:10	09:48:02	09:48:02:535	2	3	Practice_NoThink	NoThinkCue	0	5	0	0	0	1	5000	1	Cue39.jpg	-16	0	0	0	0	0	0
11	2023-04-06	09:27:10	09:48:04	09:48:04:540	2	4	Practice_NoThink	Intrusion	0	1000	3000	0	80	1	1971	1	How <b>often</b> did you <b>think</b> about the <b>scene</b>?   <center><br><b>NEVER (1)    BRIEFLY (2)   OFTEN (3) </b>	-14	0	0	0	0	0	0
11	2023-04-06	09:27:10	09:48:05	09:48:05:039	3	1	Practice_Think	fixation	0	5	500	0	0	1	495	1	+	-9	0	0	0	0	0	0
11	2023-04-06	09:27:10	09:48:06	09:48:06:052	3	2	Practice_Think	Think	0	5	0	0	0	0	1000	1	THINK	-16	0	0	0	0	0	0
11	2023-04-06	09:27:10	09:48:11	09:48:11:069	3	3	Practice_Think	ThinkCue	0	5	0	0	0	1	5000	2	Cue38.jpg	-16	0	0	0	0	0	0
11	2023-04-06	09:27:10	09:48:13	09:48:13:575	3	4	Practice_Think	Intrusion	0	1500	3000	0	0	0	1500	1	How <b>often</b> did you <b>think</b> about the <b>scene</b>?   <center><br><b>NEVER (1)    BRIEFLY (2)   OFTEN (3) </b>	-16	0	0	0	0	0	0
11	2023-04-06	09:27:10	09:48:15	09:48:15:073	4	1	Practice_NoThink	fixation	0	5	1000	0	0	1	995	1	+	-9	0	0	0	0	0	0
11	2023-04-06	09:27:10	09:48:16	09:48:16:086	4	2	Practice_NoThink	NoThink	0	5	0	0	0	0	1000	1	DON'T THINK	-16	0	0	0	0	0	0
11	2023-04-06	09:27:10	09:48:21	09:48:21:103	4	3	Practice_NoThink	NoThinkCue	0	5	0	0	0	1	5000	2	Cue40.jpg	-16	0	0	0	0	0	0
11	2023-04-06	09:27:10	09:48:24	09:48:24:508	4	4	Practice_NoThink	Intrusion	0	500	3000	0	80	1	2388	1	How <b>often</b> did you <b>think</b> about the <b>scene</b>?   <center><br><b>NEVER (1)    BRIEFLY (2)   OFTEN (3) </b>	-16	0	0	0	0	0	0
11	2023-04-06	09:27:10	09:48:26	09:48:26:607	5	1	Practice_Think	fixation	0	5	1500	0	0	1	1495	1	+	-8	0	0	0	0	0	0
11	2023-04-06	09:27:10	09:48:27	09:48:27:619	5	2	Practice_Think	Think	0	5	0	0	0	0	1000	1	THINK	-16	0	0	0	0	0	0
11	2023-04-06	09:27:10	09:48:32	09:48:32:637	5	3	Practice_Think	ThinkCue	0	5	0	0	0	1	5000	1	Cue37.jpg	-16	0	0	0	0	0	0
11	2023-04-06	09:27:10	09:48:34	09:48:34:220	5	4	Practice_Think	Intrusion	0	1000	3000	0	81	1	1566	1	How <b>often</b> did you <b>think</b> about the <b>scene</b>?   <center><br><b>NEVER (1)    BRIEFLY (2)   OFTEN (3) </b>	-16	0	0	0	0	0	0
11	2023-04-06	09:27:10	09:56:05	09:56:05:904	6	1	Practice_Betweenblocks1	Practice_Betweenblocks1	0	5	0	0	57	1	450229	1	<center><br><br><br><br>This is the end of the first practice round. <br><br>There will be 2 more practice rounds.  <br><br> Please await further instruction from the experimenter.	-16	0	0	0	0	0	0
11	2023-04-06	09:27:10	09:56:06	09:56:06:905	7	1	Practice_NoThink	fixation	0	5	1000	0	0	1	995	1	+	-8	0	0	0	0	0	0
11	2023-04-06	09:27:10	09:56:07	09:56:07:914	7	2	Practice_NoThink	NoThink	0	5	0	0	0	0	1000	1	DON'T THINK	-16	0	0	0	0	0	0
11	2023-04-06	09:27:10	09:56:12	09:56:12:931	7	3	Practice_NoThink	NoThinkCue	0	5	0	0	0	1	5000	1	Cue39.jpg	-16	0	0	0	0	0	0
11	2023-04-06	09:27:10	09:56:14	09:56:14:438	7	4	Practice_NoThink	Intrusion	0	1500	3000	0	0	0	1500	1	How <b>often</b> did you <b>think</b> about the <b>scene</b>?   <center><br><b>NEVER (1)    BRIEFLY (2)   OFTEN (3) </b>	-16	0	0	0	0	0	0
11	2023-04-06	09:27:10	09:56:16	09:56:16:434	8	1	Practice_Think	fixation	0	5	500	0	0	1	495	1	+	-9	0	0	0	0	0	0
11	2023-04-06	09:27:10	09:56:17	09:56:17:448	8	2	Practice_Think	Think	0	5	0	0	0	0	1000	1	THINK	-16	0	0	0	0	0	0
11	2023-04-06	09:27:10	09:56:22	09:56:22:465	8	3	Practice_Think	ThinkCue	0	5	0	0	0	1	5000	2	Cue38.jpg	-16	0	0	0	0	0	0
11	2023-04-06	09:27:10	09:56:24	09:56:24:972	8	4	Practice_Think	Intrusion	0	500	3000	0	0	0	2500	1	How <b>often</b> did you <b>think</b> about the <b>scene</b>?   <center><br><b>NEVER (1)    BRIEFLY (2)   OFTEN (3) </b>	-16	0	0	0	0	0	0
11	2023-04-06	09:27:10	09:56:26	09:56:26:469	9	1	Practice_NoThink	fixation	0	5	1000	0	0	1	995	1	+	-9	0	0	0	0	0	0
11	2023-04-06	09:27:10	09:56:27	09:56:27:482	9	2	Practice_NoThink	NoThink	0	5	0	0	0	0	1000	1	DON'T THINK	-16	0	0	0	0	0	0
11	2023-04-06	09:27:10	09:56:32	09:56:32:499	9	3	Practice_NoThink	NoThinkCue	0	5	0	0	0	1	5000	2	Cue40.jpg	-16	0	0	0	0	0	0
11	2023-04-06	09:27:10	09:56:34	09:56:34:252	9	4	Practice_NoThink	Intrusion	0	1000	3000	0	80	1	1736	1	How <b>often</b> did you <b>think</b> about the <b>scene</b>?   <center><br><b>NEVER (1)    BRIEFLY (2)   OFTEN (3) </b>	-16	0	0	0	0	0	0
11	2023-04-06	09:27:10	09:56:36	09:56:36:03	10	1	Practice_Think	fixation	0	5	1500	0	0	1	1495	1	+	-9	0	0	0	0	0	0
11	2023-04-06	09:27:10	09:56:37	09:56:37:016	10	2	Practice_Think	Think	0	5	0	0	0	0	1000	1	THINK	-16	0	0	0	0	0	0
11	2023-04-06	09:27:10	09:56:42	09:56:42:033	10	3	Practice_Think	ThinkCue	0	5	0	0	0	1	5000	1	Cue37.jpg	-16	0	0	0	0	0	0
11	2023-04-06	09:27:10	09:56:43	09:56:43:044	10	4	Practice_Think	Intrusion	0	500	3000	0	81	1	994	1	How <b>often</b> did you <b>think</b> about the <b>scene</b>?   <center><br><b>NEVER (1)    BRIEFLY (2)   OFTEN (3) </b>	-16	0	0	0	0	0	0
11	2023-04-06	09:27:10	09:56:55	09:56:55:027	11	1	Practice_Betweenblocks2	Practice_Betweenblocks2	0	5	0	0	57	1	9944	1	<center><br><br><br><br>This is the end of the second practice round. <br><br>There will be 1 more practice round.  <br><br> Please await further instruction from the experimenter.	-8	0	0	0	0	0	0
11	2023-04-06	09:27:10	09:56:56	09:56:56:530	12	1	Practice_NoThink	fixation	0	5	500	0	0	1	495	1	+	-8	0	0	0	0	0	0
11	2023-04-06	09:27:10	09:56:57	09:56:57:551	12	2	Practice_NoThink	NoThink	0	5	0	0	0	0	1000	1	DON'T THINK	-9	0	0	0	0	0	0
11	2023-04-06	09:27:10	09:57:02	09:57:02:567	12	3	Practice_NoThink	NoThinkCue	0	5	0	0	0	1	5000	1	Cue39.jpg	-16	0	0	0	0	0	0
11	2023-04-06	09:27:10	09:57:03	09:57:03:948	12	4	Practice_NoThink	Intrusion	0	1500	3000	0	80	1	1363	1	How <b>often</b> did you <b>think</b> about the <b>scene</b>?   <center><br><b>NEVER (1)    BRIEFLY (2)   OFTEN (3) </b>	-16	0	0	0	0	0	0
11	2023-04-06	09:27:10	09:57:06	09:57:06:571	13	1	Practice_NoThink	fixation	0	5	1000	0	0	1	995	1	+	0	0	0	0	0	0	0
11	2023-04-06	09:27:10	09:57:07	09:57:07:585	13	2	Practice_NoThink	NoThink	0	5	0	0	0	0	1000	1	DON'T THINK	-16	0	0	0	0	0	0
11	2023-04-06	09:27:10	09:57:12	09:57:12:601	13	3	Practice_NoThink	NoThinkCue	0	5	0	0	0	1	5000	2	Cue40.jpg	-16	0	0	0	0	0	0
11	2023-04-06	09:27:10	09:57:13	09:57:13:148	13	4	Practice_NoThink	Intrusion	0	1500	3000	0	79	1	529	1	How <b>often</b> did you <b>think</b> about the <b>scene</b>?   <center><br><b>NEVER (1)    BRIEFLY (2)   OFTEN (3) </b>	-16	0	0	0	0	0	0
11	2023-04-06	09:27:10	09:57:16	09:57:16:105	14	1	Practice_Think	fixation	0	5	1500	0	0	1	1495	1	+	-9	0	0	0	0	0	0
11	2023-04-06	09:27:10	09:57:17	09:57:17:118	14	2	Practice_Think	Think	0	5	0	0	0	0	1000	1	THINK	-16	0	0	0	0	0	0
11	2023-04-06	09:27:10	09:57:23	09:57:23:135	14	3	Practice_Think	ThinkCue	0	5	0	0	0	1	5000	2	Cue38.jpg	-16	0	0	0	0	0	0
11	2023-04-06	09:27:10	09:57:24	09:57:24:380	14	4	Practice_Think	Intrusion	0	500	3000	0	81	1	1227	1	How <b>often</b> did you <b>think</b> about the <b>scene</b>?   <center><br><b>NEVER (1)    BRIEFLY (2)   OFTEN (3) </b>	-16	0	0	0	0	0	0
11	2023-04-06	09:27:10	09:57:26	09:57:26:639	15	1	Practice_Think	fixation	0	5	500	0	0	1	495	1	+	-8	0	0	0	0	0	0
11	2023-04-06	09:27:10	09:57:27	09:57:27:652	15	2	Practice_Think	Think	0	5	0	0	0	0	1000	1	THINK	-16	0	0	0	0	0	0
11	2023-04-06	09:27:10	09:57:32	09:57:32:669	15	3	Practice_Think	ThinkCue	0	5	0	0	0	1	5000	1	Cue37.jpg	-16	0	0	0	0	0	0
11	2023-04-06	09:27:10	09:57:33	09:57:33:756	15	4	Practice_Think	Intrusion	0	1000	3000	0	81	1	1069	1	How <b>often</b> did you <b>think</b> about the <b>scene</b>?   <center><br><b>NEVER (1)    BRIEFLY (2)   OFTEN (3) </b>	-16	0	0	0	0	0	0
11	2023-04-06	09:27:10	10:02:07	10:02:07:04	2	1	TNT_NoThink_CSp	fixation	0	5	1000	0	0	1	995	1	+	-16	0	0	0	0	0	0
11	2023-04-06	09:27:10	10:02:08	10:02:08:019	2	2	TNT_NoThink_CSp	NoThink	0	5	0	0	0	0	1000	1	DON'T THINK	-16	0	0	0	0	0	0
11	2023-04-06	09:27:10	10:02:13	10:02:13:035	2	3	TNT_NoThink_CSp	TNT_NoThink_CSp	0	5	0	0	0	0	5000	3	Cue34.jpg	-16	0	0	0	0	0	0
11	2023-04-06	09:27:10	10:02:14	10:02:14:382	2	4	TNT_NoThink_CSp	Intrusion	0	1000	3000	0	80	1	1329	1	How <b>often</b> did you <b>think</b> about the <b>scene</b>?   <center><br><b>NEVER (1)    BRIEFLY (2)   OFTEN (3) </b>	-16	0	0	0	0	0	0
11	2023-04-06	09:27:10	10:02:18	10:02:18:539	3	1	TNT_Object_CSp	fixation	0	5	1500	0	0	1	1495	1	+	-8	0	0	0	0	0	0
11	2023-04-06	09:27:10	10:02:19	10:02:19:552	3	2	TNT_Object_CSp	Passive	0	5	0	0	0	0	1000	1	VIEW	-16	0	0	0	0	0	0
11	2023-04-06	09:27:10	10:02:24	10:02:24:569	3	3	TNT_Object_CSp	TNT_Object_CSp	0	500	0	0	0	0	5000	4	Object2.jpg	-16	0	0	0	0	0	0
11	2023-04-06	09:27:10	10:02:25	10:02:25:568	4	1	TNT_Think_CSm	fixation	0	5	500	0	0	1	495	1	+	-8	0	0	0	0	0	0
11	2023-04-06	09:27:10	10:02:26	10:02:26:586	4	2	TNT_Think_CSm	Think	0	5	0	0	0	0	1000	1	THINK	-16	0	0	0	0	0	0
11	2023-04-06	09:27:10	10:02:31	10:02:31:603	4	3	TNT_Think_CSm	TNT_Think_CSm	0	5	0	0	0	0	5000	6	Cue33.jpg	-16	0	0	0	0	0	0
11	2023-04-06	09:27:10	10:02:32	10:02:32:030	4	4	TNT_Think_CSm	Intrusion	0	1500	3000	0	81	1	1410	1	How <b>often</b> did you <b>think</b> about the <b>scene</b>?   <center><br><b>NEVER (1)    BRIEFLY (2)   OFTEN (3) </b>	-16	0	0	0	0	0	0
11	2023-04-06	09:27:10	10:02:34	10:02:34:107	5	1	TNT_Think_CSm	fixation	0	5	500	0	0	1	495	1	+	-8	0	0	0	0	0	0
11	2023-04-06	09:27:10	10:02:35	10:02:35:120	5	2	TNT_Think_CSm	Think	0	5	0	0	0	0	1000	1	THINK	-16	0	0	0	0	0	0
11	2023-04-06	09:27:10	10:02:40	10:02:40:137	5	3	TNT_Think_CSm	TNT_Think_CSm	0	5	0	0	0	0	5000	4	Cue28.jpg	-16	0	0	0	0	0	0
11	2023-04-06	09:27:10	10:02:43	10:02:43:644	5	4	TNT_Think_CSm	Intrusion	0	500	3000	0	0	0	2500	1	How <b>often</b> did you <b>think</b> about the <b>scene</b>?   <center><br><b>NEVER (1)    BRIEFLY (2)   OFTEN (3) </b>	-16	0	0	0	0	0	0
11	2023-04-06	09:27:10	10:02:45	10:02:45:640	6	1	TNT_NoThink_CSm	fixation	0	5	1500	0	0	1	1495	1	+	-9	0	0	0	0	0	0
11	2023-04-06	09:27:10	10:02:46	10:02:46:654	6	2	TNT_NoThink_CSm	NoThink	0	5	0	0	0	0	1000	1	DON'T THINK	-16	0	0	0	0	0	0
11	2023-04-06	09:27:10	10:02:51	10:02:51:671	6	3	TNT_NoThink_CSm	TNT_NoThink_CSm	0	5	0	0	0	0	5000	4	Cue19.jpg	-16	0	0	0	0	0	0
11	2023-04-06	09:27:10	10:02:52	10:02:52:178	6	4	TNT_NoThink_CSm	Intrusion	0	1500	3000	0	0	0	1500	1	How <b>often</b> did you <b>think</b> about the <b>scene</b>?   <center><br><b>NEVER (1)    BRIEFLY (2)   OFTEN (3) </b>	-16	0	0	0	0	0	0
11	2023-04-06	09:27:10	10:02:55	10:02:55:674	7	1	TNT_Think_CSm	fixation	0	5	1000	0	0	1	995	1	+	-8	0	0	0	0	0	0
11	2023-04-06	09:27:10	10:02:56	10:02:56:688	7	2	TNT_Think_CSm	Think	0	5	0	0	0	0	1000	1	THINK	-16	0	0	0	0	0	0
11	2023-04-06	09:27:10	10:03:01	10:03:01:705	7	3	TNT_Think_CSm	TNT_Think_CSm	0	5	0	0	0	0	5000	2	Cue32.jpg	-16	0	0	0	0	0	0
11	2023-04-06	09:27:10	10:03:02	10:03:02:678	7	4	TNT_Think_CSm	Intrusion	0	1000	3000	0	81	1	956	1	How <b>often</b> did you <b>think</b> about the <b>scene</b>?   <center><br><b>NEVER (1)    BRIEFLY (2)   OFTEN (3) </b>	-16	0	0	0	0	0	0
11	2023-04-06	09:27:10	10:03:04	10:03:04:209	8	1	TNT_Think_CSp	fixation	0	5	500	0	0	1	495	1	+	-8	0	0	0	0	0	0
11	2023-04-06	09:27:10	10:03:05	10:03:05:222	8	2	TNT_Think_CSp	Think	0	5	0	0	0	0	1000	1	THINK	-16	0	0	0	0	0	0
11	2023-04-06	09:27:10	10:03:10	10:03:10:239	8	3	TNT_Think_CSp	TNT_Think_CSp	0	5	0	0	0	0	5000	3	Cue22.jpg	-16	0	0	0	0	0	0
11	2023-04-06	09:27:10	10:03:12	10:03:12:286	8	4	TNT_Think_CSp	Intrusion	0	500	3000	0	80	1	2030	1	How <b>often</b> did you <b>think</b> about the <b>scene</b>?   <center><br><b>NEVER (1)    BRIEFLY (2)   OFTEN (3) </b>	-16	0	0	0	0	0	0
11	2023-04-06	09:27:10	10:03:15	10:03:15:743	9	1	TNT_Think_CSp	fixation	0	5	1500	0	0	1	1495	1	+	-8	0	0	0	0	0	0
11	2023-04-06	09:27:10	10:03:16	10:03:16:756	9	2	TNT_Think_CSp	Think	0	5	0	0	0	0	1000	1	THINK	-16	0	0	0	0	0	0
11	2023-04-06	09:27:10	10:03:21	10:03:21:773	9	3	TNT_Think_CSp	TNT_Think_CSp	0	5	0	0	0	0	5000	2	Cue21.jpg	-16	0	0	0	0	0	0
11	2023-04-06	09:27:10	10:03:22	10:03:22:078	9	4	TNT_Think_CSp	Intrusion	0	1500	3000	0	81	1	1288	1	How <b>often</b> did you <b>think</b> about the <b>scene</b>?   <center><br><b>NEVER (1)    BRIEFLY (2)   OFTEN (3) </b>	-16	0	0	0	0	0	0
11	2023-04-06	09:27:10	10:03:25	10:03:25:777	10	1	TNT_NoThink_CSm	fixation	0	5	1000	0	0	1	995	1	+	-16	0	0	0	0	0	0
11	2023-04-06	09:27:10	10:03:26	10:03:26:790	10	2	TNT_NoThink_CSm	NoThink	0	5	0	0	0	0	1000	1	DON'T THINK	-16	0	0	0	0	0	0
11	2023-04-06	09:27:10	10:03:31	10:03:31:807	10	3	TNT_NoThink_CSm	TNT_NoThink_CSm	0	5	0	0	0	0	5000	6	Cue4.jpg	-16	0	0	0	0	0	0
11	2023-04-06	09:27:10	10:03:32	10:03:32:158	10	4	TNT_NoThink_CSm	Intrusion	0	500	3000	0	80	1	1334	1	How <b>often</b> did you <b>think</b> about the <b>scene</b>?   <center><br><b>NEVER (1)    BRIEFLY (2)   OFTEN (3) </b>	-16	0	0	0	0	0	0
11	2023-04-06	09:27:10	10:03:34	10:03:34:311	11	1	TNT_Object_CSm	fixation	0	5	500	0	0	1	495	1	+	-8	0	0	0	0	0	0
11	2023-04-06	09:27:10	10:03:35	10:03:35:324	11	2	TNT_Object_CSm	Passive	0	5	0	0	0	0	1000	1	VIEW	-16	0	0	0	0	0	0
11	2023-04-06	09:27:10	10:03:40	10:03:40:340	11	3	TNT_Object_CSm	TNT_Object_CSm	0	500	0	0	0	0	5000	1	Object8.jpg	-16	0	0	0	0	0	0
11	2023-04-06	09:27:10	10:03:42	10:03:42:840	12	1	TNT_NoThink_CSm	fixation	0	5	1000	0	0	1	995	1	+	-8	0	0	0	0	0	0
11	2023-04-06	09:27:10	10:03:43	10:03:43:858	12	2	TNT_NoThink_CSm	NoThink	0	5	0	0	0	0	1000	1	DON'T THINK	-16	0	0	0	0	0	0
11	2023-04-06	09:27:10	10:03:48	10:03:48:874	12	3	TNT_NoThink_CSm	TNT_NoThink_CSm	0	5	0	0	0	0	5000	2	Cue16.jpg	-16	0	0	0	0	0	0
11	2023-04-06	09:27:10	10:03:49	10:03:49:702	12	4	TNT_NoThink_CSm	Intrusion	0	1000	3000	0	79	1	810	1	How <b>often</b> did you <b>think</b> about the <b>scene</b>?   <center><br><b>NEVER (1)    BRIEFLY (2)   OFTEN (3) </b>	-16	0	0	0	0	0	0
11	2023-04-06	09:27:10	10:03:52	10:03:52:378	13	1	TNT_NoThink_CSm	fixation	0	5	1500	0	0	1	1495	1	+	0	0	0	0	0	0	0
11	2023-04-06	09:27:10	10:03:54	10:03:54:392	13	2	TNT_NoThink_CSm	NoThink	0	5	0	0	0	0	1000	1	DON'T THINK	-16	0	0	0	0	0	0
11	2023-04-06	09:27:10	10:03:59	10:03:59:408	13	3	TNT_NoThink_CSm	TNT_NoThink_CSm	0	5	0	0	0	0	5000	5	Cue26.jpg	-16	0	0	0	0	0	0
11	2023-04-06	09:27:10	10:03:59	10:03:59:246	13	4	TNT_NoThink_CSm	Intrusion	0	1000	3000	0	80	1	820	1	How <b>often</b> did you <b>think</b> about the <b>scene</b>?   <center><br><b>NEVER (1)    BRIEFLY (2)   OFTEN (3) </b>	-16	0	0	0	0	0	0
11	2023-04-06	09:27:10	10:04:03	10:04:03:912	14	1	TNT_Object_CSp	fixation	0	5	1500	0	0	1	1495	1	+	-8	0	0	0	0	0	0
11	2023-04-06	09:27:10	10:04:04	10:04:04:925	14	2	TNT_Object_CSp	Passive	0	5	0	0	0	0	1000	1	VIEW	-16	0	0	0	0	0	0
11	2023-04-06	09:27:10	10:04:09	10:04:09:942	14	3	TNT_Object_CSp	TNT_Object_CSp	0	1500	0	0	0	0	5000	1	Object3.jpg	-16	0	0	0	0	0	0
11	2023-04-06	09:27:10	10:04:11	10:04:11:942	15	1	TNT_NoThink_CSm	fixation	0	5	500	0	0	1	495	1	+	-9	0	0	0	0	0	0
11	2023-04-06	09:27:10	10:04:12	10:04:12:959	15	2	TNT_NoThink_CSm	NoThink	0	5	0	0	0	0	1000	1	DON'T THINK	-16	0	0	0	0	0	0
11	2023-04-06	09:27:10	10:04:17	10:04:17:976	15	3	TNT_NoThink_CSm	TNT_NoThink_CSm	0	5	0	0	0	0	5000	3	Cue3.jpg	-16	0	0	0	0	0	0
11	2023-04-06	09:27:10	10:04:19	10:04:19:483	15	4	TNT_NoThink_CSm	Intrusion	0	1500	3000	0	0	0	1500	1	How <b>often</b> did you <b>think</b> about the <b>scene</b>?   <center><br><b>NEVER (1)    BRIEFLY (2)   OFTEN (3) </b>	-16	0	0	0	0	0	0
11	2023-04-06	09:27:10	10:04:21	10:04:21:980	16	1	TNT_Think_CSm	fixation	0	5	1000	0	0	1	995	1	+	-9	0	0	0	0	0	0
11	2023-04-06	09:27:10	10:04:22	10:04:22:993	16	2	TNT_Think_CSm	Think	0	5	0	0	0	0	1000	1	THINK	-16	0	0	0	0	0	0
11	2023-04-06	09:27:10	10:04:27	10:04:27:010	16	3	TNT_Think_CSm	TNT_Think_CSm	0	5	0	0	0	0	5000	1	Cue23.jpg	-16	0	0	0	0	0	0
11	2023-04-06	09:27:10	10:04:28	10:04:28:950	16	4	TNT_Think_CSm	Intrusion	0	500	3000	0	81	1	923	1	How <b>often</b> did you <b>think</b> about the <b>scene</b>?   <center><br><b>NEVER (1)    BRIEFLY (2)   OFTEN (3) </b>	-16	0	0	0	0	0	0
11	2023-04-06	09:27:10	10:04:32	10:04:32:513	17	1	TNT_Object_CSm	fixation	0	5	1500	0	0	1	1495	1	+	-8	0	0	0	0	0	0
11	2023-04-06	09:27:10	10:04:33	10:04:33:527	17	2	TNT_Object_CSm	Passive	0	5	0	0	0	0	1000	1	VIEW	-16	0	0	0	0	0	0
11	2023-04-06	09:27:10	10:04:38	10:04:38:544	17	3	TNT_Object_CSm	TNT_Object_CSm	0	1000	0	0	0	0	5000	3	Object7.jpg	-16	0	0	0	0	0	0
11	2023-04-06	09:27:10	10:04:40	10:04:40:543	18	1	TNT_Object_CSp	fixation	0	5	1000	0	0	1	995	1	+	-9	0	0	0	0	0	0
11	2023-04-06	09:27:10	10:04:41	10:04:41:561	18	2	TNT_Object_CSp	Passive	0	5	0	0	0	0	1000	1	VIEW	-16	0	0	0	0	0	0
11	2023-04-06	09:27:10	10:04:46	10:04:46:578	18	3	TNT_Object_CSp	TNT_Object_CSp	0	1000	0	0	0	0	5000	2	Object5.jpg	-16	0	0	0	0	0	0
11	2023-04-06	09:27:10	10:04:47	10:04:47:077	19	1	TNT_NoThink_CSp	fixation	0	5	500	0	0	1	495	1	+	-9	0	0	0	0	0	0
11	2023-04-06	09:27:10	10:04:48	10:04:48:095	19	2	TNT_NoThink_CSp	NoThink	0	5	0	0	0	0	1000	1	DON'T THINK	-16	0	0	0	0	0	0
11	2023-04-06	09:27:10	10:04:53	10:04:53:111	19	3	TNT_NoThink_CSp	TNT_NoThink_CSp	0	5	0	0	0	0	5000	6	Cue1.jpg	-16	0	0	0	0	0	0
11	2023-04-06	09:27:10	10:04:54	10:04:54:382	19	4	TNT_NoThink_CSp	Intrusion	0	500	3000	0	79	1	1253	1	How <b>often</b> did you <b>think</b> about the <b>scene</b>?   <center><br><b>NEVER (1)    BRIEFLY (2)   OFTEN (3) </b>	-16	0	0	0	0	0	0
11	2023-04-06	09:27:10	10:04:57	10:04:57:615	20	1	TNT_NoThink_CSp	fixation	0	5	500	0	0	1	495	1	+	-9	0	0	0	0	0	0
11	2023-04-06	09:27:10	10:04:58	10:04:58:629	20	2	TNT_NoThink_CSp	NoThink	0	5	0	0	0	0	1000	1	DON'T THINK	-16	0	0	0	0	0	0
11	2023-04-06	09:27:10	10:05:03	10:05:03:645	20	3	TNT_NoThink_CSp	TNT_NoThink_CSp	0	5	0	0	0	0	5000	1	Cue36.jpg	-16	0	0	0	0	0	0
11	2023-04-06	09:27:10	10:05:04	10:05:04:582	20	4	TNT_NoThink_CSp	Intrusion	0	1000	3000	0	79	1	919	1	How <b>often</b> did you <b>think</b> about the <b>scene</b>?   <center><br><b>NEVER (1)    BRIEFLY (2)   OFTEN (3) </b>	-16	0	0	0	0	0	0
11	2023-04-06	09:27:10	10:05:07	10:05:07:149	21	1	TNT_NoThink_CSm	fixation	0	5	1500	0	0	1	1495	1	+	-8	0	0	0	0	0	0
11	2023-04-06	09:27:10	10:05:08	10:05:08:163	21	2	TNT_NoThink_CSm	NoThink	0	5	0	0	0	0	1000	1	DON'T THINK	-16	0	0	0	0	0	0
11	2023-04-06	09:27:10	10:05:13	10:05:13:179	21	3	TNT_NoThink_CSm	TNT_NoThink_CSm	0	5	0	0	0	0	5000	1	Cue25.jpg	-16	0	0	0	0	0	0
11	2023-04-06	09:27:10	10:05:15	10:05:15:686	21	4	TNT_NoThink_CSm	Intrusion	0	1500	3000	0	79	1	1489	1	How <b>often</b> did you <b>think</b> about the <b>scene</b>?   <center><br><b>NEVER (1)    BRIEFLY (2)   OFTEN (3) </b>	-16	0	0	0	0	0	0
11	2023-04-06	09:27:10	10:05:17	10:05:17:183	22	1	TNT_Think_CSp	fixation	0	5	1000	0	0	1	995	1	+	-8	0	0	0	0	0	0
11	2023-04-06	09:27:10	10:05:18	10:05:18:196	22	2	TNT_Think_CSp	Think	0	5	0	0	0	0	1000	1	THINK	-16	0	0	0	0	0	0
11	2023-04-06	09:27:10	10:05:23	10:05:23:213	22	3	TNT_Think_CSp	TNT_Think_CSp	0	5	0	0	0	0	5000	1	Cue10.jpg	-16	0	0	0	0	0	0
11	2023-04-06	09:27:10	10:05:25	10:05:25:590	22	4	TNT_Think_CSp	Intrusion	0	1500	3000	0	81	1	1359	1	How <b>often</b> did you <b>think</b> about the <b>scene</b>?   <center><br><b>NEVER (1)    BRIEFLY (2)   OFTEN (3) </b>	-16	0	0	0	0	0	0
11	2023-04-06	09:27:10	10:05:28	10:05:28:717	23	1	TNT_Think_CSp	fixation	0	5	1500	0	0	1	1495	1	+	-8	0	0	0	0	0	0
11	2023-04-06	09:27:10	10:05:29	10:05:29:730	23	2	TNT_Think_CSp	Think	0	5	0	0	0	0	1000	1	THINK	-16	0	0	0	0	0	0
11	2023-04-06	09:27:10	10:05:34	10:05:34:747	23	3	TNT_Think_CSp	TNT_Think_CSp	0	5	0	0	0	0	5000	4	Cue31.jpg	-16	0	0	0	0	0	0
11	2023-04-06	09:27:10	10:05:35	10:05:35:246	23	4	TNT_Think_CSp	Intrusion	0	1000	3000	0	81	1	1481	1	How <b>often</b> did you <b>think</b> about the <b>scene</b>?   <center><br><b>NEVER (1)    BRIEFLY (2)   OFTEN (3) </b>	-16	0	0	0	0	0	0
11	2023-04-06	09:27:10	10:05:38	10:05:38:751	24	1	TNT_Object_CSm	fixation	0	5	1000	0	0	1	995	1	+	-9	0	0	0	0	0	0
11	2023-04-06	09:27:10	10:05:39	10:05:39:764	24	2	TNT_Object_CSm	Passive	0	5	0	0	0	0	1000	1	VIEW	-16	0	0	0	0	0	0
11	2023-04-06	09:27:10	10:05:44	10:05:44:781	24	3	TNT_Object_CSm	TNT_Object_CSm	0	1500	0	0	0	0	5000	4	Object4.jpg	-16	0	0	0	0	0	0
11	2023-04-06	09:27:10	10:05:46	10:05:46:781	25	1	TNT_NoThink_CSp	fixation	0	5	500	0	0	1	495	1	+	-9	0	0	0	0	0	0
11	2023-04-06	09:27:10	10:05:47	10:05:47:798	25	2	TNT_NoThink_CSp	NoThink	0	5	0	0	0	0	1000	1	DON'T THINK	-16	0	0	0	0	0	0
11	2023-04-06	09:27:10	10:05:52	10:05:52:815	25	3	TNT_NoThink_CSp	TNT_NoThink_CSp	0	5	0	0	0	0	5000	4	Cue5.jpg	-16	0	0	0	0	0	0
11	2023-04-06	09:27:10	10:05:54	10:05:54:662	25	4	TNT_NoThink_CSp	Intrusion	0	500	3000	0	79	1	1829	1	How <b>often</b> did you <b>think</b> about the <b>scene</b>?   <center><br><b>NEVER (1)    BRIEFLY (2)   OFTEN (3) </b>	-16	0	0	0	0	0	0
11	2023-04-06	09:27:10	10:05:55	10:05:55:319	26	1	TNT_Object_CSp	fixation	0	5	500	0	0	1	495	1	+	-9	0	0	0	0	0	0
11	2023-04-06	09:27:10	10:05:56	10:05:56:332	26	2	TNT_Object_CSp	Passive	0	5	0	0	0	0	1000	1	VIEW	-16	0	0	0	0	0	0
11	2023-04-06	09:27:10	10:06:01	10:06:01:349	26	3	TNT_Object_CSp	TNT_Object_CSp	0	1000	0	0	0	0	5000	3	Object6.jpg	-16	0	0	0	0	0	0
11	2023-04-06	09:27:10	10:06:04	10:06:04:848	27	1	TNT_NoThink_CSp	fixation	0	5	1500	0	0	1	1495	1	+	-9	0	0	0	0	0	0
11	2023-04-06	09:27:10	10:06:05	10:06:05:866	27	2	TNT_NoThink_CSp	NoThink	0	5	0	0	0	0	1000	1	DON'T THINK	-16	0	0	0	0	0	0
11	2023-04-06	09:27:10	10:06:10	10:06:10:883	27	3	TNT_NoThink_CSp	TNT_NoThink_CSp	0	5	0	0	0	0	5000	5	Cue2.jpg	-16	0	0	0	0	0	0
11	2023-04-06	09:27:10	10:06:11	10:06:11:878	27	4	TNT_NoThink_CSp	Intrusion	0	1000	3000	0	80	1	978	1	How <b>often</b> did you <b>think</b> about the <b>scene</b>?   <center><br><b>NEVER (1)    BRIEFLY (2)   OFTEN (3) </b>	-16	0	0	0	0	0	0
11	2023-04-06	09:27:10	10:06:14	10:06:14:887	28	1	TNT_NoThink_CSp	fixation	0	5	1000	0	0	1	995	1	+	-9	0	0	0	0	0	0
11	2023-04-06	09:27:10	10:06:15	10:06:15:900	28	2	TNT_NoThink_CSp	NoThink	0	5	0	0	0	0	1000	1	DON'T THINK	-16	0	0	0	0	0	0
11	2023-04-06	09:27:10	10:06:20	10:06:20:917	28	3	TNT_NoThink_CSp	TNT_NoThink_CSp	0	5	0	0	0	0	5000	2	Cue20.jpg	-16	0	0	0	0	0	0
11	2023-04-06	09:27:10	10:06:21	10:06:21:166	28	4	TNT_NoThink_CSp	Intrusion	0	500	3000	0	79	1	1232	1	How <b>often</b> did you <b>think</b> about the <b>scene</b>?   <center><br><b>NEVER (1)    BRIEFLY (2)   OFTEN (3) </b>	-16	0	0	0	0	0	0
11	2023-04-06	09:27:10	10:06:25	10:06:25:421	29	1	TNT_Think_CSm	fixation	0	5	1500	0	0	1	1495	1	+	-9	0	0	0	0	0	0
11	2023-04-06	09:27:10	10:06:26	10:06:26:434	29	2	TNT_Think_CSm	Think	0	5	0	0	0	0	1000	1	THINK	-16	0	0	0	0	0	0
11	2023-04-06	09:27:10	10:06:31	10:06:31:451	29	3	TNT_Think_CSm	TNT_Think_CSm	0	5	0	0	0	0	5000	3	Cue35.jpg	-16	0	0	0	0	0	0
11	2023-04-06	09:27:10	10:06:32	10:06:32:838	29	4	TNT_Think_CSm	Intrusion	0	1500	3000	0	81	1	1370	1	How <b>often</b> did you <b>think</b> about the <b>scene</b>?   <center><br><b>NEVER (1)    BRIEFLY (2)   OFTEN (3) </b>	-16	0	0	0	0	0	0
11	2023-04-06	09:27:10	10:06:34	10:06:34:955	30	1	TNT_Think_CSp	fixation	0	5	500	0	0	1	495	1	+	-9	0	0	0	0	0	0
11	2023-04-06	09:27:10	10:06:35	10:06:35:968	30	2	TNT_Think_CSp	Think	0	5	0	0	0	0	1000	1	THINK	-16	0	0	0	0	0	0
11	2023-04-06	09:27:10	10:06:40	10:06:40:985	30	3	TNT_Think_CSp	TNT_Think_CSp	0	5	0	0	0	0	5000	6	Cue24.jpg	-16	0	0	0	0	0	0
11	2023-04-06	09:27:10	10:06:42	10:06:42:491	30	4	TNT_Think_CSp	Intrusion	0	1500	3000	0	0	0	1500	1	How <b>often</b> did you <b>think</b> about the <b>scene</b>?   <center><br><b>NEVER (1)    BRIEFLY (2)   OFTEN (3) </b>	-16	0	0	0	0	0	0
11	2023-04-06	09:27:10	10:06:44	10:06:44:989	31	1	TNT_Object_CSm	fixation	0	5	1000	0	0	1	995	1	+	-8	0	0	0	0	0	0
11	2023-04-06	09:27:10	10:06:45	10:06:45:02	31	2	TNT_Object_CSm	Passive	0	5	0	0	0	0	1000	1	VIEW	-16	0	0	0	0	0	0
11	2023-04-06	09:27:10	10:06:50	10:06:50:019	31	3	TNT_Object_CSm	TNT_Object_CSm	0	500	0	0	0	0	5000	2	Object1.jpg	-16	0	0	0	0	0	0
11	2023-04-06	09:27:10	10:06:52	10:06:52:518	32	1	TNT_Think_CSm	fixation	0	5	1000	0	0	1	995	1	+	-9	0	0	0	0	0	0
11	2023-04-06	09:27:10	10:06:53	10:06:53:535	32	2	TNT_Think_CSm	Think	0	5	0	0	0	0	1000	1	THINK	-16	0	0	0	0	0	0
11	2023-04-06	09:27:10	10:06:58	10:06:58:552	32	3	TNT_Think_CSm	TNT_Think_CSm	0	5	0	0	0	0	5000	5	Cue15.jpg	-16	0	0	0	0	0	0
11	2023-04-06	09:27:10	10:07:00	10:07:00:726	32	4	TNT_Think_CSm	Intrusion	0	500	3000	0	81	1	2156	1	How <b>often</b> did you <b>think</b> about the <b>scene</b>?   <center><br><b>NEVER (1)    BRIEFLY (2)   OFTEN (3) </b>	-16	0	0	0	0	0	0
11	2023-04-06	09:27:10	10:07:01	10:07:01:056	33	1	TNT_Think_CSp	fixation	0	5	500	0	0	1	495	1	+	-9	0	0	0	0	0	0
11	2023-04-06	09:27:10	10:07:02	10:07:02:069	33	2	TNT_Think_CSp	Think	0	5	0	0	0	0	1000	1	THINK	-16	0	0	0	0	0	0
11	2023-04-06	09:27:10	10:07:07	10:07:07:086	33	3	TNT_Think_CSp	TNT_Think_CSp	0	5	0	0	0	0	5000	5	Cue13.jpg	-16	0	0	0	0	0	0
11	2023-04-06	09:27:10	10:07:09	10:07:09:414	33	4	TNT_Think_CSp	Intrusion	0	1000	3000	0	81	1	1310	1	How <b>often</b> did you <b>think</b> about the <b>scene</b>?   <center><br><b>NEVER (1)    BRIEFLY (2)   OFTEN (3) </b>	-16	0	0	0	0	0	0
11	2023-04-06	09:27:10	10:07:12	10:07:12:590	34	1	TNT_Think_CSp	fixation	0	5	1500	0	0	1	1495	1	+	-8	0	0	0	0	0	0
11	2023-04-06	09:27:10	10:07:13	10:07:13:603	34	2	TNT_Think_CSp	Think	0	5	0	0	0	0	1000	1	THINK	-16	0	0	0	0	0	0
11	2023-04-06	09:27:10	10:07:18	10:07:18:620	34	3	TNT_Think_CSp	TNT_Think_CSp	0	5	0	0	0	0	5000	4	Cue31.jpg	-16	0	0	0	0	0	0
11	2023-04-06	09:27:10	10:07:19	10:07:19:606	34	4	TNT_Think_CSp	Intrusion	0	1500	3000	0	81	1	968	1	How <b>often</b> did you <b>think</b> about the <b>scene</b>?   <center><br><b>NEVER (1)    BRIEFLY (2)   OFTEN (3) </b>	-16	0	0	0	0	0	0
11	2023-04-06	09:27:10	10:07:22	10:07:22:637	35	1	TNT_Object_CSm	fixation	0	5	1000	0	0	1	995	1	+	-9	0	0	0	0	0	0
11	2023-04-06	09:27:10	10:07:23	10:07:23:654	35	2	TNT_Object_CSm	Passive	0	5	0	0	0	0	1000	1	VIEW	-16	0	0	0	0	0	0
11	2023-04-06	09:27:10	10:07:28	10:07:28:671	35	3	TNT_Object_CSm	TNT_Object_CSm	0	1000	0	0	0	0	5000	3	Object7.jpg	-16	0	0	0	0	0	0
11	2023-04-06	09:27:10	10:07:29	10:07:29:170	36	1	TNT_Think_CSm	fixation	0	5	500	0	0	1	495	1	+	-8	0	0	0	0	0	0
11	2023-04-06	09:27:10	10:07:30	10:07:30:188	36	2	TNT_Think_CSm	Think	0	5	0	0	0	0	1000	1	THINK	-16	0	0	0	0	0	0
11	2023-04-06	09:27:10	10:07:35	10:07:35:205	36	3	TNT_Think_CSm	TNT_Think_CSm	0	5	0	0	0	0	5000	6	Cue33.jpg	-16	0	0	0	0	0	0
11	2023-04-06	09:27:10	10:07:37	10:07:37:212	36	4	TNT_Think_CSm	Intrusion	0	1000	3000	0	0	0	2000	1	How <b>often</b> did you <b>think</b> about the <b>scene</b>?   <center><br><b>NEVER (1)    BRIEFLY (2)   OFTEN (3) </b>	-16	0	0	0	0	0	0
11	2023-04-06	09:27:10	10:07:40	10:07:40:709	37	1	TNT_Object_CSm	fixation	0	5	1500	0	0	1	1495	1	+	-16	0	0	0	0	0	0
11	2023-04-06	09:27:10	10:07:41	10:07:41:722	37	2	TNT_Object_CSm	Passive	0	5	0	0	0	0	1000	1	VIEW	-16	0	0	0	0	0	0
11	2023-04-06	09:27:10	10:07:46	10:07:46:739	37	3	TNT_Object_CSm	TNT_Object_CSm	0	1500	0	0	0	0	5000	4	Object4.jpg	-16	0	0	0	0	0	0
11	2023-04-06	09:27:10	10:07:49	10:07:49:738	38	1	TNT_NoThink_CSp	fixation	0	5	1500	0	0	1	1495	1	+	-5	0	0	0	0	0	0
11	2023-04-06	09:27:10	10:07:50	10:07:50:756	38	2	TNT_NoThink_CSp	NoThink	0	5	0	0	0	0	1000	1	DON'T THINK	-16	0	0	0	0	0	0
11	2023-04-06	09:27:10	10:07:55	10:07:55:772	38	3	TNT_NoThink_CSp	TNT_NoThink_CSp	0	5	0	0	0	0	5000	5	Cue2.jpg	-16	0	0	0	0	0	0
11	2023-04-06	09:27:10	10:07:56	10:07:56:126	38	4	TNT_NoThink_CSp	Intrusion	0	500	3000	0	79	1	1336	1	How <b>often</b> did you <b>think</b> about the <b>scene</b>?   <center><br><b>NEVER (1)    BRIEFLY (2)   OFTEN (3) </b>	-16	0	0	0	0	0	0
11	2023-04-06	09:27:10	10:07:58	10:07:58:276	39	1	TNT_Object_CSp	fixation	0	5	500	0	0	1	495	1	+	-9	0	0	0	0	0	0
11	2023-04-06	09:27:10	10:07:59	10:07:59:290	39	2	TNT_Object_CSp	Passive	0	5	0	0	0	0	1000	1	VIEW	-16	0	0	0	0	0	0
11	2023-04-06	09:27:10	10:08:04	10:08:04:306	39	3	TNT_Object_CSp	TNT_Object_CSp	0	500	0	0	0	0	5000	4	Object2.jpg	-16	0	0	0	0	0	0
11	2023-04-06	09:27:10	10:08:06	10:08:06:806	40	1	TNT_NoThink_CSp	fixation	0	5	1000	0	0	1	995	1	+	-9	0	0	0	0	0	0
11	2023-04-06	09:27:10	10:08:07	10:08:07:823	40	2	TNT_NoThink_CSp	NoThink	0	5	0	0	0	0	1000	1	DON'T THINK	-16	0	0	0	0	0	0
11	2023-04-06	09:27:10	10:08:12	10:08:12:840	40	3	TNT_NoThink_CSp	TNT_NoThink_CSp	0	5	0	0	0	0	5000	1	Cue36.jpg	-16	0	0	0	0	0	0
11	2023-04-06	09:27:10	10:08:13	10:08:13:862	40	4	TNT_NoThink_CSp	Intrusion	0	1500	3000	0	79	1	1004	1	How <b>often</b> did you <b>think</b> about the <b>scene</b>?   <center><br><b>NEVER (1)    BRIEFLY (2)   OFTEN (3) </b>	-16	0	0	0	0	0	0
11	2023-04-06	09:27:10	10:08:16	10:08:16:344	41	1	TNT_Object_CSp	fixation	0	5	1500	0	0	1	1495	1	+	-9	0	0	0	0	0	0
11	2023-04-06	09:27:10	10:08:17	10:08:17:357	41	2	TNT_Object_CSp	Passive	0	5	0	0	0	0	1000	1	VIEW	-16	0	0	0	0	0	0
11	2023-04-06	09:27:10	10:08:22	10:08:22:374	41	3	TNT_Object_CSp	TNT_Object_CSp	0	1500	0	0	0	0	5000	1	Object3.jpg	-16	0	0	0	0	0	0
11	2023-04-06	09:27:10	10:08:25	10:08:25:872	42	1	TNT_NoThink_CSm	fixation	0	5	1000	0	0	1	995	1	+	-9	0	0	0	0	0	0
11	2023-04-06	09:27:10	10:08:26	10:08:26:891	42	2	TNT_NoThink_CSm	NoThink	0	5	0	0	0	0	1000	1	DON'T THINK	-16	0	0	0	0	0	0
11	2023-04-06	09:27:10	10:08:31	10:08:31:908	42	3	TNT_NoThink_CSm	TNT_NoThink_CSm	0	5	0	0	0	0	5000	5	Cue26.jpg	-16	0	0	0	0	0	0
11	2023-04-06	09:27:10	10:08:32	10:08:32:030	42	4	TNT_NoThink_CSm	Intrusion	0	500	3000	0	79	1	1105	1	How <b>often</b> did you <b>think</b> about the <b>scene</b>?   <center><br><b>NEVER (1)    BRIEFLY (2)   OFTEN (3) </b>	-16	0	0	0	0	0	0
11	2023-04-06	09:27:10	10:08:35	10:08:35:412	43	1	TNT_Think_CSm	fixation	0	5	500	0	0	1	495	1	+	-7	0	0	0	0	0	0
11	2023-04-06	09:27:10	10:08:36	10:08:36:425	43	2	TNT_Think_CSm	Think	0	5	0	0	0	0	1000	1	THINK	-16	0	0	0	0	0	0
11	2023-04-06	09:27:10	10:08:41	10:08:41:442	43	3	TNT_Think_CSm	TNT_Think_CSm	0	5	0	0	0	0	5000	4	Cue28.jpg	-16	0	0	0	0	0	0
11	2023-04-06	09:27:10	10:08:42	10:08:42:758	43	4	TNT_Think_CSm	Intrusion	0	1000	3000	0	80	1	1299	1	How <b>often</b> did you <b>think</b> about the <b>scene</b>?   <center><br><b>NEVER (1)    BRIEFLY (2)   OFTEN (3) </b>	-16	0	0	0	0	0	0
11	2023-04-06	09:27:10	10:08:45	10:08:45:946	44	1	TNT_Think_CSm	fixation	0	5	1500	0	0	1	1495	1	+	-9	0	0	0	0	0	0
11	2023-04-06	09:27:10	10:08:46	10:08:46:959	44	2	TNT_Think_CSm	Think	0	5	0	0	0	0	1000	1	THINK	-16	0	0	0	0	0	0
11	2023-04-06	09:27:10	10:08:51	10:08:51:976	44	3	TNT_Think_CSm	TNT_Think_CSm	0	5	0	0	0	0	5000	3	Cue35.jpg	-16	0	0	0	0	0	0
11	2023-04-06	09:27:10	10:08:53	10:08:53:686	44	4	TNT_Think_CSm	Intrusion	0	1000	3000	0	80	1	1693	1	How <b>often</b> did you <b>think</b> about the <b>scene</b>?   <center><br><b>NEVER (1)    BRIEFLY (2)   OFTEN (3) </b>	-16	0	0	0	0	0	0
11	2023-04-06	09:27:10	10:08:55	10:08:55:980	45	1	TNT_NoThink_CSm	fixation	0	5	1000	0	0	1	995	1	+	-8	0	0	0	0	0	0
11	2023-04-06	09:27:10	10:08:56	10:08:56:993	45	2	TNT_NoThink_CSm	NoThink	0	5	0	0	0	0	1000	1	DON'T THINK	-16	0	0	0	0	0	0
11	2023-04-06	09:27:10	10:09:01	10:09:01:010	45	3	TNT_NoThink_CSm	TNT_NoThink_CSm	0	5	0	0	0	0	5000	1	Cue25.jpg	-16	0	0	0	0	0	0
11	2023-04-06	09:27:10	10:09:02	10:09:02:190	45	4	TNT_NoThink_CSm	Intrusion	0	1500	3000	0	79	1	1163	1	How <b>often</b> did you <b>think</b> about the <b>scene</b>?   <center><br><b>NEVER (1)    BRIEFLY (2)   OFTEN (3) </b>	-16	0	0	0	0	0	0
11	2023-04-06	09:27:10	10:09:05	10:09:05:514	46	1	TNT_Object_CSm	fixation	0	5	500	0	0	1	495	1	+	-16	0	0	0	0	0	0
11	2023-04-06	09:27:10	10:09:06	10:09:06:527	46	2	TNT_Object_CSm	Passive	0	5	0	0	0	0	1000	1	VIEW	-16	0	0	0	0	0	0
11	2023-04-06	09:27:10	10:09:11	10:09:11:544	46	3	TNT_Object_CSm	TNT_Object_CSm	0	1000	0	0	0	0	5000	2	Object1.jpg	-16	0	0	0	0	0	0
11	2023-04-06	09:27:10	10:09:13	10:09:13:043	47	1	TNT_Object_CSm	fixation	0	5	1500	0	0	1	1495	1	+	-9	0	0	0	0	0	0
11	2023-04-06	09:27:10	10:09:14	10:09:14:061	47	2	TNT_Object_CSm	Passive	0	5	0	0	0	0	1000	1	VIEW	-16	0	0	0	0	0	0
11	2023-04-06	09:27:10	10:09:19	10:09:19:077	47	3	TNT_Object_CSm	TNT_Object_CSm	0	1500	0	0	0	0	5000	1	Object8.jpg	-16	0	0	0	0	0	0
11	2023-04-06	09:27:10	10:09:22	10:09:22:577	48	1	TNT_NoThink_CSp	fixation	0	5	1000	0	0	1	995	1	+	-8	0	0	0	0	0	0
11	2023-04-06	09:27:10	10:09:23	10:09:23:595	48	2	TNT_NoThink_CSp	NoThink	0	5	0	0	0	0	1000	1	DON'T THINK	-16	0	0	0	0	0	0
11	2023-04-06	09:27:10	10:09:28	10:09:28:611	48	3	TNT_NoThink_CSp	TNT_NoThink_CSp	0	5	0	0	0	0	5000	2	Cue20.jpg	-16	0	0	0	0	0	0
11	2023-04-06	09:27:10	10:09:29	10:09:29:558	48	4	TNT_NoThink_CSp	Intrusion	0	500	3000	0	79	1	929	1	How <b>often</b> did you <b>think</b> about the <b>scene</b>?   <center><br><b>NEVER (1)    BRIEFLY (2)   OFTEN (3) </b>	-16	0	0	0	0	0	0
11	2023-04-06	09:27:10	10:09:31	10:09:31:115	49	1	TNT_NoThink_CSp	fixation	0	5	500	0	0	1	495	1	+	-9	0	0	0	0	0	0
11	2023-04-06	09:27:10	10:09:32	10:09:32:129	49	2	TNT_NoThink_CSp	NoThink	0	5	0	0	0	0	1000	1	DON'T THINK	-16	0	0	0	0	0	0
11	2023-04-06	09:27:10	10:09:37	10:09:37:145	49	3	TNT_NoThink_CSp	TNT_NoThink_CSp	0	5	0	0	0	0	5000	6	Cue1.jpg	-16	0	0	0	0	0	0
11	2023-04-06	09:27:10	10:09:39	10:09:39:606	49	4	TNT_NoThink_CSp	Intrusion	0	1500	3000	0	79	1	1443	1	How <b>often</b> did you <b>think</b> about the <b>scene</b>?   <center><br><b>NEVER (1)    BRIEFLY (2)   OFTEN (3) </b>	-16	0	0	0	0	0	0
11	2023-04-06	09:27:10	10:09:41	10:09:41:149	50	1	TNT_Think_CSp	fixation	0	5	1000	0	0	1	995	1	+	-8	0	0	0	0	0	0
11	2023-04-06	09:27:10	10:09:42	10:09:42:162	50	2	TNT_Think_CSp	Think	0	5	0	0	0	0	1000	1	THINK	-16	0	0	0	0	0	0
11	2023-04-06	09:27:10	10:09:47	10:09:47:179	50	3	TNT_Think_CSp	TNT_Think_CSp	0	5	0	0	0	0	5000	3	Cue22.jpg	-16	0	0	0	0	0	0
11	2023-04-06	09:27:10	10:09:49	10:09:49:590	50	4	TNT_Think_CSp	Intrusion	0	1000	3000	0	81	1	1393	1	How <b>often</b> did you <b>think</b> about the <b>scene</b>?   <center><br><b>NEVER (1)    BRIEFLY (2)   OFTEN (3) </b>	-16	0	0	0	0	0	0
11	2023-04-06	09:27:10	10:09:52	10:09:52:683	51	1	TNT_Object_CSp	fixation	0	5	1500	0	0	1	1495	1	+	-8	0	0	0	0	0	0
11	2023-04-06	09:27:10	10:09:53	10:09:53:696	51	2	TNT_Object_CSp	Passive	0	5	0	0	0	0	1000	1	VIEW	-16	0	0	0	0	0	0
11	2023-04-06	09:27:10	10:09:58	10:09:58:713	51	3	TNT_Object_CSp	TNT_Object_CSp	0	500	0	0	0	0	5000	2	Object5.jpg	-16	0	0	0	0	0	0
11	2023-04-06	09:27:10	10:09:59	10:09:59:711	52	1	TNT_Think_CSm	fixation	0	5	500	0	0	1	495	1	+	-9	0	0	0	0	0	0
11	2023-04-06	09:27:10	10:10:00	10:10:00:730	52	2	TNT_Think_CSm	Think	0	5	0	0	0	0	1000	1	THINK	-16	0	0	0	0	0	0
11	2023-04-06	09:27:10	10:10:05	10:10:05:747	52	3	TNT_Think_CSm	TNT_Think_CSm	0	5	0	0	0	0	5000	2	Cue32.jpg	-16	0	0	0	0	0	0
11	2023-04-06	09:27:10	10:10:06	10:10:06:758	52	4	TNT_Think_CSm	Intrusion	0	500	3000	0	81	1	994	1	How <b>often</b> did you <b>think</b> about the <b>scene</b>?   <center><br><b>NEVER (1)    BRIEFLY (2)   OFTEN (3) </b>	-16	0	0	0	0	0	0
11	2023-04-06	09:27:10	10:10:08	10:10:08:250	53	1	TNT_NoThink_CSm	fixation	0	5	500	0	0	1	495	1	+	-8	0	0	0	0	0	0
11	2023-04-06	09:27:10	10:10:09	10:10:09:264	53	2	TNT_NoThink_CSm	NoThink	0	5	0	0	0	0	1000	1	DON'T THINK	-16	0	0	0	0	0	0
11	2023-04-06	09:27:10	10:10:14	10:10:14:281	53	3	TNT_NoThink_CSm	TNT_NoThink_CSm	0	5	0	0	0	0	5000	6	Cue4.jpg	-16	0	0	0	0	0	0
11	2023-04-06	09:27:10	10:10:16	10:10:16:886	53	4	TNT_NoThink_CSm	Intrusion	0	500	3000	0	80	1	1588	1	How <b>often</b> did you <b>think</b> about the <b>scene</b>?   <center><br><b>NEVER (1)    BRIEFLY (2)   OFTEN (3) </b>	-16	0	0	0	0	0	0
11	2023-04-06	09:27:10	10:10:18	10:10:18:285	54	1	TNT_Think_CSm	fixation	0	5	1000	0	0	1	995	1	+	-1	0	0	0	0	0	0
11	2023-04-06	09:27:10	10:10:19	10:10:19:298	54	2	TNT_Think_CSm	Think	0	5	0	0	0	0	1000	1	THINK	-16	0	0	0	0	0	0
11	2023-04-06	09:27:10	10:10:24	10:10:24:315	54	3	TNT_Think_CSm	TNT_Think_CSm	0	5	0	0	0	0	5000	5	Cue15.jpg	-16	0	0	0	0	0	0
11	2023-04-06	09:27:10	10:10:26	10:10:26:821	54	4	TNT_Think_CSm	Intrusion	0	1500	3000	0	0	0	1500	1	How <b>often</b> did you <b>think</b> about the <b>scene</b>?   <center><br><b>NEVER (1)    BRIEFLY (2)   OFTEN (3) </b>	-16	0	0	0	0	0	0
11	2023-04-06	09:27:10	10:10:29	10:10:29:819	55	1	TNT_Object_CSp	fixation	0	5	1500	0	0	1	1495	1	+	-8	0	0	0	0	0	0
11	2023-04-06	09:27:10	10:10:30	10:10:30:832	55	2	TNT_Object_CSp	Passive	0	5	0	0	0	0	1000	1	VIEW	-16	0	0	0	0	0	0
11	2023-04-06	09:27:10	10:10:35	10:10:35:849	55	3	TNT_Object_CSp	TNT_Object_CSp	0	1500	0	0	0	0	5000	3	Object6.jpg	-16	0	0	0	0	0	0
11	2023-04-06	09:27:10	10:10:38	10:10:38:848	56	1	TNT_NoThink_CSm	fixation	0	5	1500	0	0	1	1495	1	+	-9	0	0	0	0	0	0
11	2023-04-06	09:27:10	10:10:39	10:10:39:866	56	2	TNT_NoThink_CSm	NoThink	0	5	0	0	0	0	1000	1	DON'T THINK	-16	0	0	0	0	0	0
11	2023-04-06	09:27:10	10:10:44	10:10:44:883	56	3	TNT_NoThink_CSm	TNT_NoThink_CSm	0	5	0	0	0	0	5000	3	Cue3.jpg	-16	0	0	0	0	0	0
11	2023-04-06	09:27:10	10:10:45	10:10:45:310	56	4	TNT_NoThink_CSm	Intrusion	0	1000	3000	0	79	1	1410	1	How <b>often</b> did you <b>think</b> about the <b>scene</b>?   <center><br><b>NEVER (1)    BRIEFLY (2)   OFTEN (3) </b>	-16	0	0	0	0	0	0
11	2023-04-06	09:27:10	10:10:48	10:10:48:387	57	1	TNT_NoThink_CSm	fixation	0	5	500	0	0	1	495	1	+	-9	0	0	0	0	0	0
11	2023-04-06	09:27:10	10:10:49	10:10:49:400	57	2	TNT_NoThink_CSm	NoThink	0	5	0	0	0	0	1000	1	DON'T THINK	-16	0	0	0	0	0	0
11	2023-04-06	09:27:10	10:10:54	10:10:54:416	57	3	TNT_NoThink_CSm	TNT_NoThink_CSm	0	5	0	0	0	0	5000	4	Cue19.jpg	-16	0	0	0	0	0	0
11	2023-04-06	09:27:10	10:10:55	10:10:55:574	57	4	TNT_NoThink_CSm	Intrusion	0	1500	3000	0	80	1	1140	1	How <b>often</b> did you <b>think</b> about the <b>scene</b>?   <center><br><b>NEVER (1)    BRIEFLY (2)   OFTEN (3) </b>	-16	0	0	0	0	0	0
11	2023-04-06	09:27:10	10:10:58	10:10:58:420	58	1	TNT_Think_CSm	fixation	0	5	1000	0	0	1	995	1	+	-9	0	0	0	0	0	0
11	2023-04-06	09:27:10	10:10:59	10:10:59:433	58	2	TNT_Think_CSm	Think	0	5	0	0	0	0	1000	1	THINK	-16	0	0	0	0	0	0
11	2023-04-06	09:27:10	10:11:04	10:11:04:450	58	3	TNT_Think_CSm	TNT_Think_CSm	0	5	0	0	0	0	5000	1	Cue23.jpg	-16	0	0	0	0	0	0
11	2023-04-06	09:27:10	10:11:04	10:11:04:350	58	4	TNT_Think_CSm	Intrusion	0	500	3000	0	81	1	882	1	How <b>often</b> did you <b>think</b> about the <b>scene</b>?   <center><br><b>NEVER (1)    BRIEFLY (2)   OFTEN (3) </b>	-16	0	0	0	0	0	0
11	2023-04-06	09:27:10	10:11:08	10:11:08:454	59	1	TNT_Think_CSp	fixation	0	5	1000	0	0	1	995	1	+	-16	0	0	0	0	0	0
11	2023-04-06	09:27:10	10:11:09	10:11:09:467	59	2	TNT_Think_CSp	Think	0	5	0	0	0	0	1000	1	THINK	-16	0	0	0	0	0	0
11	2023-04-06	09:27:10	10:11:14	10:11:14:484	59	3	TNT_Think_CSp	TNT_Think_CSp	0	5	0	0	0	0	5000	6	Cue24.jpg	-16	0	0	0	0	0	0
11	2023-04-06	09:27:10	10:11:14	10:11:14:366	59	4	TNT_Think_CSp	Intrusion	0	1000	3000	0	81	1	864	1	How <b>often</b> did you <b>think</b> about the <b>scene</b>?   <center><br><b>NEVER (1)    BRIEFLY (2)   OFTEN (3) </b>	-16	0	0	0	0	0	0
11	2023-04-06	09:27:10	10:11:17	10:11:17:987	60	1	TNT_Think_CSp	fixation	0	5	500	0	0	1	495	1	+	-8	0	0	0	0	0	0
11	2023-04-06	09:27:10	10:11:18	10:11:18:01	60	2	TNT_Think_CSp	Think	0	5	0	0	0	0	1000	1	THINK	-16	0	0	0	0	0	0
11	2023-04-06	09:27:10	10:11:23	10:11:23:018	60	3	TNT_Think_CSp	TNT_Think_CSp	0	5	0	0	0	0	5000	5	Cue13.jpg	-16	0	0	0	0	0	0
11	2023-04-06	09:27:10	10:11:24	10:11:24:302	60	4	TNT_Think_CSp	Intrusion	0	1000	3000	0	81	1	1266	1	How <b>often</b> did you <b>think</b> about the <b>scene</b>?   <center><br><b>NEVER (1)    BRIEFLY (2)   OFTEN (3) </b>	-16	0	0	0	0	0	0
11	2023-04-06	09:27:10	10:11:28	10:11:28:522	61	1	TNT_NoThink_CSp	fixation	0	5	1500	0	0	1	1495	1	+	-1	0	0	0	0	0	0
11	2023-04-06	09:27:10	10:11:29	10:11:29:535	61	2	TNT_NoThink_CSp	NoThink	0	5	0	0	0	0	1000	1	DON'T THINK	-16	0	0	0	0	0	0
11	2023-04-06	09:27:10	10:11:34	10:11:34:552	61	3	TNT_NoThink_CSp	TNT_NoThink_CSp	0	5	0	0	0	0	5000	4	Cue5.jpg	-16	0	0	0	0	0	0
11	2023-04-06	09:27:10	10:11:35	10:11:35:830	61	4	TNT_NoThink_CSp	Intrusion	0	500	3000	0	80	1	1260	1	How <b>often</b> did you <b>think</b> about the <b>scene</b>?   <center><br><b>NEVER (1)    BRIEFLY (2)   OFTEN (3) </b>	-16	0	0	0	0	0	0
11	2023-04-06	09:27:10	10:11:38	10:11:38:556	62	1	TNT_Think_CSp	fixation	0	5	1000	0	0	1	995	1	+	-8	0	0	0	0	0	0
11	2023-04-06	09:27:10	10:11:39	10:11:39:569	62	2	TNT_Think_CSp	Think	0	5	0	0	0	0	1000	1	THINK	-16	0	0	0	0	0	0
11	2023-04-06	09:27:10	10:11:44	10:11:44:586	62	3	TNT_Think_CSp	TNT_Think_CSp	0	5	0	0	0	0	5000	1	Cue10.jpg	-16	0	0	0	0	0	0
11	2023-04-06	09:27:10	10:11:45	10:11:45:093	62	4	TNT_Think_CSp	Intrusion	0	1500	3000	0	0	0	1500	1	How <b>often</b> did you <b>think</b> about the <b>scene</b>?   <center><br><b>NEVER (1)    BRIEFLY (2)   OFTEN (3) </b>	-16	0	0	0	0	0	0
11	2023-04-06	09:27:10	10:11:47	10:11:47:090	63	1	TNT_NoThink_CSp	fixation	0	5	500	0	0	1	495	1	+	-8	0	0	0	0	0	0
11	2023-04-06	09:27:10	10:11:48	10:11:48:103	63	2	TNT_NoThink_CSp	NoThink	0	5	0	0	0	0	1000	1	DON'T THINK	-16	0	0	0	0	0	0
11	2023-04-06	09:27:10	10:11:53	10:11:53:120	63	3	TNT_NoThink_CSp	TNT_NoThink_CSp	0	5	0	0	0	0	5000	3	Cue34.jpg	-16	0	0	0	0	0	0
11	2023-04-06	09:27:10	10:11:55	10:11:55:510	63	4	TNT_NoThink_CSp	Intrusion	0	1000	3000	0	79	1	1372	1	How <b>often</b> did you <b>think</b> about the <b>scene</b>?   <center><br><b>NEVER (1)    BRIEFLY (2)   OFTEN (3) </b>	-16	0	0	0	0	0	0
11	2023-04-06	09:27:10	10:11:58	10:11:58:624	64	1	TNT_Think_CSp	fixation	0	5	1500	0	0	1	1495	1	+	-9	0	0	0	0	0	0
11	2023-04-06	09:27:10	10:11:59	10:11:59:637	64	2	TNT_Think_CSp	Think	0	5	0	0	0	0	1000	1	THINK	-16	0	0	0	0	0	0
11	2023-04-06	09:27:10	10:12:04	10:12:04:654	64	3	TNT_Think_CSp	TNT_Think_CSp	0	5	0	0	0	0	5000	2	Cue21.jpg	-16	0	0	0	0	0	0
11	2023-04-06	09:27:10	10:12:06	10:12:06:534	64	4	TNT_Think_CSp	Intrusion	0	500	3000	0	81	1	1862	1	How <b>often</b> did you <b>think</b> about the <b>scene</b>?   <center><br><b>NEVER (1)    BRIEFLY (2)   OFTEN (3) </b>	-16	0	0	0	0	0	0
11	2023-04-06	09:27:10	10:12:08	10:12:08:158	65	1	TNT_NoThink_CSm	fixation	0	5	1500	0	0	1	1495	1	+	-9	0	0	0	0	0	0
11	2023-04-06	09:27:10	10:12:09	10:12:09:171	65	2	TNT_NoThink_CSm	NoThink	0	5	0	0	0	0	1000	1	DON'T THINK	-16	0	0	0	0	0	0
11	2023-04-06	09:27:10	10:12:14	10:12:14:188	65	3	TNT_NoThink_CSm	TNT_NoThink_CSm	0	5	0	0	0	0	5000	2	Cue16.jpg	-16	0	0	0	0	0	0
11	2023-04-06	09:27:10	10:12:16	10:12:16:695	65	4	TNT_NoThink_CSm	Intrusion	0	1500	3000	0	0	0	1500	1	How <b>often</b> did you <b>think</b> about the <b>scene</b>?   <center><br><b>NEVER (1)    BRIEFLY (2)   OFTEN (3) </b>	-16	0	0	0	0	0	0
11	2023-04-06	09:27:10	10:12:18	10:12:18:692	66	1	Expectancy_rating	fixation	0	5	500	0	0	1	495	1	+	-9	0	0	0	0	0	0
11	2023-04-06	09:27:10	10:12:29	10:12:29:670	66	2	Expectancy_rating	expectancy_rating	0	1500	0	0	34	0	10957	1	When you saw the <b>object</b>,   to what <b>degree (0-100%)</b> did you expect the <b>unpleasant sound to occur</b>?	-16	15	Cue15.jpg	-16	0	0	0
11	2023-04-06	09:27:10	10:12:47	10:12:47:257	67	1	Expectancy_rating	fixation	0	5	1000	0	0	1	995	1	+	-8	0	0	0	0	0	0
11	2023-04-06	09:27:10	10:12:54	10:12:54:939	67	2	Expectancy_rating	expectancy_rating	0	500	0	0	79	0	6652	1	When you saw the <b>object</b>,   to what <b>degree (0-100%)</b> did you expect the <b>unpleasant sound to occur</b>?	-16	10	Cue10.jpg	-16	0	0	0
11	2023-04-06	09:27:10	10:13:06	10:13:06:119	68	1	Expectancy_rating	fixation	0	5	1000	0	0	1	995	1	+	-8	0	0	0	0	0	0
11	2023-04-06	09:27:10	10:13:21	10:13:21:740	68	2	Expectancy_rating	expectancy_rating	0	1000	0	0	29	0	14585	1	When you saw the <b>object</b>,   to what <b>degree (0-100%)</b> did you expect the <b>unpleasant sound to occur</b>?	-7	44	Object4.jpg	-7	0	0	0
11	2023-04-06	09:27:10	10:13:37	10:13:37:116	69	1	Expectancy_rating	fixation	0	5	1500	0	0	1	1495	1	+	-9	0	0	0	0	0	0
11	2023-04-06	09:27:10	10:13:42	10:13:42:191	69	2	Expectancy_rating	expectancy_rating	0	1000	0	0	89	0	5055	1	When you saw the <b>object</b>,   to what <b>degree (0-100%)</b> did you expect the <b>unpleasant sound to occur</b>?	-16	1	Cue1.jpg	-16	0	0	0
11	2023-04-06	09:27:10	10:13:46	10:13:46:588	70	1	Expectancy_rating	fixation	0	5	500	0	0	1	495	1	+	-16	0	0	0	0	0	0
11	2023-04-06	09:27:10	10:13:49	10:13:49:708	70	2	Expectancy_rating	expectancy_rating	0	500	0	0	30	0	3091	1	When you saw the <b>object</b>,   to what <b>degree (0-100%)</b> did you expect the <b>unpleasant sound to occur</b>?	-6	42	Object2.jpg	-6	0	0	0
11	2023-04-06	09:27:10	10:13:51	10:13:51:660	71	1	Expectancy_rating	fixation	0	5	500	0	0	1	495	1	+	-8	0	0	0	0	0	0
11	2023-04-06	09:27:10	10:13:55	10:13:55:559	71	2	Expectancy_rating	expectancy_rating	0	1500	0	0	80	0	3848	1	When you saw the <b>object</b>,   to what <b>degree (0-100%)</b> did you expect the <b>unpleasant sound to occur</b>?	-16	7	Cue7.jpg	-16	0	0	0
11	2023-04-06	09:27:10	10:13:58	10:13:58:104	72	1	Expectancy_rating	fixation	0	5	1000	0	0	1	995	1	+	-9	0	0	0	0	0	0
11	2023-04-06	09:27:10	10:14:02	10:14:02:442	72	2	Expectancy_rating	expectancy_rating	0	1500	0	0	30	0	3294	1	When you saw the <b>object</b>,   to what <b>degree (0-100%)</b> did you expect the <b>unpleasant sound to occur</b>?	-16	48	Object8.jpg	-16	0	0	0
11	2023-04-06	09:27:10	10:14:05	10:14:05:372	73	1	Expectancy_rating	fixation	0	5	1500	0	0	1	1495	1	+	-16	0	0	0	0	0	0
11	2023-04-06	09:27:10	10:14:11	10:14:11:860	73	2	Expectancy_rating	expectancy_rating	0	1000	0	0	21	0	5451	1	When you saw the <b>object</b>,   to what <b>degree (0-100%)</b> did you expect the <b>unpleasant sound to occur</b>?	-7	41	Object1.jpg	-7	0	0	0
11	2023-04-06	09:27:10	10:14:14	10:14:14:720	74	1	Expectancy_rating	fixation	0	5	1000	0	0	1	995	1	+	-8	0	0	0	0	0	0
11	2023-04-06	09:27:10	10:14:19	10:14:19:727	74	2	Expectancy_rating	expectancy_rating	0	500	0	0	60	0	4988	1	When you saw the <b>object</b>,   to what <b>degree (0-100%)</b> did you expect the <b>unpleasant sound to occur</b>?	-16	40	Cue40.jpg	-16	0	0	0
11	2023-04-06	09:27:10	10:14:21	10:14:21:755	75	1	Expectancy_rating	fixation	0	5	500	0	0	1	495	1	+	-9	0	0	0	0	0	0
11	2023-04-06	09:27:10	10:14:25	10:14:25:944	75	2	Expectancy_rating	expectancy_rating	0	1500	0	0	40	0	4171	1	When you saw the <b>object</b>,   to what <b>degree (0-100%)</b> did you expect the <b>unpleasant sound to occur</b>?	-16	43	Object3.jpg	-16	0	0	0
11	2023-04-06	09:27:10	10:14:29	10:14:29:732	76	1	Expectancy_rating	fixation	0	5	1500	0	0	1	1495	1	+	-8	0	0	0	0	0	0
11	2023-04-06	09:27:10	10:14:34	10:14:34:594	76	2	Expectancy_rating	expectancy_rating	0	1000	0	0	42	0	4811	1	When you saw the <b>object</b>,   to what <b>degree (0-100%)</b> did you expect the <b>unpleasant sound to occur</b>?	-16	13	Cue13.jpg	-16	0	0	0
11	2023-04-06	09:27:10	10:14:36	10:14:36:265	77	1	Expectancy_rating	fixation	0	5	1000	0	0	1	995	1	+	-7	0	0	0	0	0	0
11	2023-04-06	09:27:10	10:14:39	10:14:39:328	77	2	Expectancy_rating	expectancy_rating	0	500	0	0	70	0	3013	1	When you saw the <b>object</b>,   to what <b>degree (0-100%)</b> did you expect the <b>unpleasant sound to occur</b>?	-16	39	Cue39.jpg	-16	0	0	0
11	2023-04-06	09:27:10	10:14:42	10:14:42:963	78	1	Expectancy_rating	fixation	0	5	1500	0	0	1	1495	1	+	-9	0	0	0	0	0	0
11	2023-04-06	09:27:10	10:14:51	10:14:51:079	78	2	Expectancy_rating	expectancy_rating	0	1500	0	0	64	0	9089	1	When you saw the <b>object</b>,   to what <b>degree (0-100%)</b> did you expect the <b>unpleasant sound to occur</b>?	-16	32	Cue32.jpg	-16	0	0	0
11	2023-04-06	09:27:10	10:14:54	10:14:54:116	79	1	Expectancy_rating	fixation	0	5	500	0	0	1	495	1	+	-8	0	0	0	0	0	0
11	2023-04-06	09:27:10	10:14:58	10:14:58:779	79	2	Expectancy_rating	expectancy_rating	0	1000	0	0	55	0	3635	1	When you saw the <b>object</b>,   to what <b>degree (0-100%)</b> did you expect the <b>unpleasant sound to occur</b>?	-16	26	Cue26.jpg	-16	0	0	0
11	2023-04-06	09:27:10	10:15:00	10:15:00:164	80	1	Expectancy_rating	fixation	0	5	500	0	0	1	495	1	+	-8	0	0	0	0	0	0
11	2023-04-06	09:27:10	10:15:04	10:15:04:746	80	2	Expectancy_rating	expectancy_rating	0	500	0	0	90	0	3528	1	When you saw the <b>object</b>,   to what <b>degree (0-100%)</b> did you expect the <b>unpleasant sound to occur</b>?	-16	24	Cue24.jpg	-16	0	0	0
11	2023-04-06	09:27:10	10:15:07	10:15:07:428	81	1	Expectancy_rating	fixation	0	5	1500	0	0	1	1495	1	+	-8	0	0	0	0	0	0
11	2023-04-06	09:27:10	10:15:10	10:15:10:114	81	2	Expectancy_rating	expectancy_rating	0	500	0	0	20	0	3629	1	When you saw the <b>object</b>,   to what <b>degree (0-100%)</b> did you expect the <b>unpleasant sound to occur</b>?	-7	14	Cue14.jpg	-7	0	0	0
11	2023-04-06	09:27:10	10:15:12	10:15:12:360	82	1	Expectancy_rating	fixation	0	5	1000	0	0	1	995	1	+	-16	0	0	0	0	0	0
11	2023-04-06	09:27:10	10:15:15	10:15:15:747	82	2	Expectancy_rating	expectancy_rating	0	1000	0	0	72	0	2351	1	When you saw the <b>object</b>,   to what <b>degree (0-100%)</b> did you expect the <b>unpleasant sound to occur</b>?	-7	9	Cue9.jpg	-7	0	0	0
11	2023-04-06	09:27:10	10:15:18	10:15:18:040	83	1	Expectancy_rating	fixation	0	5	1000	0	0	1	995	1	+	-8	0	0	0	0	0	0
11	2023-04-06	09:27:10	10:15:23	10:15:23:714	83	2	Expectancy_rating	expectancy_rating	0	1500	0	0	61	0	4628	1	When you saw the <b>object</b>,   to what <b>degree (0-100%)</b> did you expect the <b>unpleasant sound to occur</b>?	-16	19	Cue19.jpg	-16	0	0	0
11	2023-04-06	09:27:10	10:15:27	10:15:27:588	84	1	Expectancy_rating	fixation	0	5	1500	0	0	1	1495	1	+	-8	0	0	0	0	0	0
11	2023-04-06	09:27:10	10:15:31	10:15:31:698	84	2	Expectancy_rating	expectancy_rating	0	1500	0	0	58	0	4085	1	When you saw the <b>object</b>,   to what <b>degree (0-100%)</b> did you expect the <b>unpleasant sound to occur</b>?	-16	20	Cue20.jpg	-16	0	0	0
11	2023-04-06	09:27:10	10:15:34	10:15:34:524	85	1	Expectancy_rating	fixation	0	5	500	0	0	1	495	1	+	-9	0	0	0	0	0	0
11	2023-04-06	09:27:10	10:15:36	10:15:36:265	85	2	Expectancy_rating	expectancy_rating	0	1000	0	0	37	0	2697	1	When you saw the <b>object</b>,   to what <b>degree (0-100%)</b> did you expect the <b>unpleasant sound to occur</b>?	-16	36	Cue36.jpg	-16	0	0	0
11	2023-04-06	09:27:10	10:15:39	10:15:39:968	86	1	Expectancy_rating	fixation	0	5	1000	0	0	1	995	1	+	-8	0	0	0	0	0	0
11	2023-04-06	09:27:10	10:15:46	10:15:46:415	86	2	Expectancy_rating	expectancy_rating	0	500	0	0	65	0	6421	1	When you saw the <b>object</b>,   to what <b>degree (0-100%)</b> did you expect the <b>unpleasant sound to occur</b>?	-16	4	Cue4.jpg	-16	0	0	0
11	2023-04-06	09:27:10	10:15:47	10:15:47:060	87	1	Expectancy_rating	fixation	0	5	500	0	0	1	495	1	+	-2	0	0	0	0	0	0
11	2023-04-06	09:27:10	10:15:51	10:15:51:182	87	2	Expectancy_rating	expectancy_rating	0	1000	0	0	71	0	4082	1	When you saw the <b>object</b>,   to what <b>degree (0-100%)</b> did you expect the <b>unpleasant sound to occur</b>?	-16	8	Cue8.jpg	-16	0	0	0
11	2023-04-06	09:27:10	10:15:54	10:15:54:300	88	1	Expectancy_rating	fixation	0	5	1500	0	0	1	1495	1	+	-8	0	0	0	0	0	0
11	2023-04-06	09:27:10	10:15:58	10:15:58:099	88	2	Expectancy_rating	expectancy_rating	0	1500	0	0	80	0	3768	1	When you saw the <b>object</b>,   to what <b>degree (0-100%)</b> did you expect the <b>unpleasant sound to occur</b>?	-16	45	Object5.jpg	-16	0	0	0
11	2023-04-06	09:27:10	10:16:02	10:16:02:800	89	1	Expectancy_rating	fixation	0	5	1000	0	0	1	995	1	+	-8	0	0	0	0	0	0
11	2023-04-06	09:27:10	10:16:06	10:16:06:583	89	2	Expectancy_rating	expectancy_rating	0	500	0	0	76	0	3755	1	When you saw the <b>object</b>,   to what <b>degree (0-100%)</b> did you expect the <b>unpleasant sound to occur</b>?	-16	37	Cue37.jpg	-16	0	0	0
11	2023-04-06	09:27:10	10:16:07	10:16:07:284	90	1	Expectancy_rating	fixation	0	5	500	0	0	1	495	1	+	-8	0	0	0	0	0	0
11	2023-04-06	09:27:10	10:16:16	10:16:16:184	90	2	Expectancy_rating	expectancy_rating	0	1000	0	0	56	0	8871	1	When you saw the <b>object</b>,   to what <b>degree (0-100%)</b> did you expect the <b>unpleasant sound to occur</b>?	-16	17	Cue17.jpg	-16	0	0	0
11	2023-04-06	09:27:10	10:16:20	10:16:20:388	91	1	Expectancy_rating	fixation	0	5	1500	0	0	1	1495	1	+	-8	0	0	0	0	0	0
11	2023-04-06	09:27:10	10:16:23	10:16:23:768	91	2	Expectancy_rating	expectancy_rating	0	1500	0	0	95	0	3354	1	When you saw the <b>object</b>,   to what <b>degree (0-100%)</b> did you expect the <b>unpleasant sound to occur</b>?	-16	11	Cue11.jpg	-16	0	0	0
11	2023-04-06	09:27:10	10:16:26	10:16:26:635	92	1	Expectancy_rating	fixation	0	5	500	0	0	1	495	1	+	-9	0	0	0	0	0	0
11	2023-04-06	09:27:10	10:16:29	10:16:29:568	92	2	Expectancy_rating	expectancy_rating	0	500	0	0	64	0	2904	1	When you saw the <b>object</b>,   to what <b>degree (0-100%)</b> did you expect the <b>unpleasant sound to occur</b>?	-16	38	Cue38.jpg	-16	0	0	0
11	2023-04-06	09:27:10	10:16:32	10:16:32:484	93	1	Expectancy_rating	fixation	0	5	1500	0	0	1	1495	1	+	-8	0	0	0	0	0	0
11	2023-04-06	09:27:10	10:16:35	10:16:35:902	93	2	Expectancy_rating	expectancy_rating	0	500	0	0	27	0	3366	1	When you saw the <b>object</b>,   to what <b>degree (0-100%)</b> did you expect the <b>unpleasant sound to occur</b>?	-7	30	Cue30.jpg	-7	0	0	0
11	2023-04-06	09:27:10	10:16:37	10:16:37:336	94	1	Expectancy_rating	fixation	0	5	1000	0	0	1	995	1	+	-8	0	0	0	0	0	0
11	2023-04-06	09:27:10	10:16:41	10:16:41:752	94	2	Expectancy_rating	expectancy_rating	0	1000	0	0	80	0	3363	1	When you saw the <b>object</b>,   to what <b>degree (0-100%)</b> did you expect the <b>unpleasant sound to occur</b>?	-16	21	Cue21.jpg	-16	0	0	0
11	2023-04-06	09:27:10	10:16:44	10:16:44:976	95	1	Expectancy_rating	fixation	0	5	1000	0	0	1	995	1	+	-8	0	0	0	0	0	0
11	2023-04-06	09:27:10	10:17:00	10:17:00:153	95	2	Expectancy_rating	expectancy_rating	0	1500	0	0	63	0	16153	1	When you saw the <b>object</b>,   to what <b>degree (0-100%)</b> did you expect the <b>unpleasant sound to occur</b>?	-16	25	Cue25.jpg	-16	0	0	0
11	2023-04-06	09:27:10	10:17:03	10:17:03:140	96	1	Expectancy_rating	fixation	0	5	500	0	0	1	495	1	+	-2	0	0	0	0	0	0
11	2023-04-06	09:27:10	10:17:08	10:17:08:770	96	2	Expectancy_rating	expectancy_rating	0	1500	0	0	11	0	4601	1	When you saw the <b>object</b>,   to what <b>degree (0-100%)</b> did you expect the <b>unpleasant sound to occur</b>?	-16	33	Cue33.jpg	-16	0	0	0
11	2023-04-06	09:27:10	10:17:12	10:17:12:548	97	1	Expectancy_rating	fixation	0	5	1500	0	0	1	1495	1	+	-8	0	0	0	0	0	0
11	2023-04-06	09:27:10	10:17:16	10:17:16:121	97	2	Expectancy_rating	expectancy_rating	0	1000	0	0	60	0	4529	1	When you saw the <b>object</b>,   to what <b>degree (0-100%)</b> did you expect the <b>unpleasant sound to occur</b>?	-16	16	Cue16.jpg	-16	0	0	0
11	2023-04-06	09:27:10	10:17:18	10:17:18:340	98	1	Expectancy_rating	fixation	0	5	500	0	0	1	495	1	+	-8	0	0	0	0	0	0
11	2023-04-06	09:27:10	10:17:25	10:17:25:338	98	2	Expectancy_rating	expectancy_rating	0	500	0	0	91	0	6945	1	When you saw the <b>object</b>,   to what <b>degree (0-100%)</b> did you expect the <b>unpleasant sound to occur</b>?	-16	29	Cue29.jpg	-16	0	0	0
11	2023-04-06	09:27:10	10:17:28	10:17:28:783	99	1	Expectancy_rating	fixation	0	5	1000	0	0	1	995	1	+	-16	0	0	0	0	0	0
11	2023-04-06	09:27:10	10:17:33	10:17:33:422	99	2	Expectancy_rating	expectancy_rating	0	500	0	0	40	0	4623	1	When you saw the <b>object</b>,   to what <b>degree (0-100%)</b> did you expect the <b>unpleasant sound to occur</b>?	-16	3	Cue3.jpg	-16	0	0	0
11	2023-04-06	09:27:10	10:17:36	10:17:36:644	100	1	Expectancy_rating	fixation	0	5	1500	0	0	1	1495	1	+	-8	0	0	0	0	0	0
11	2023-04-06	09:27:10	10:17:39	10:17:39:272	100	2	Expectancy_rating	expectancy_rating	0	1000	0	0	50	0	3580	1	When you saw the <b>object</b>,   to what <b>degree (0-100%)</b> did you expect the <b>unpleasant sound to occur</b>?	-16	5	Cue5.jpg	-16	0	0	0
11	2023-04-06	09:27:10	10:17:42	10:17:42:668	101	1	Expectancy_rating	fixation	0	5	500	0	0	1	495	1	+	-8	0	0	0	0	0	0
11	2023-04-06	09:27:10	10:17:46	10:17:46:523	101	2	Expectancy_rating	expectancy_rating	0	1500	0	0	65	0	3835	1	When you saw the <b>object</b>,   to what <b>degree (0-100%)</b> did you expect the <b>unpleasant sound to occur</b>?	-16	27	Cue27.jpg	-16	0	0	0
11	2023-04-06	09:27:10	10:17:50	10:17:50:612	102	1	Expectancy_rating	fixation	0	5	1500	0	0	1	1495	1	+	-9	0	0	0	0	0	0
11	2023-04-06	09:27:10	10:17:55	10:17:55:573	102	2	Expectancy_rating	expectancy_rating	0	500	0	0	26	0	4916	1	When you saw the <b>object</b>,   to what <b>degree (0-100%)</b> did you expect the <b>unpleasant sound to occur</b>?	-16	47	Object7.jpg	-16	0	0	0
11	2023-04-06	09:27:10	10:17:57	10:17:57:176	103	1	Expectancy_rating	fixation	0	5	1000	0	0	1	995	1	+	-8	0	0	0	0	0	0
11	2023-04-06	09:27:10	10:18:05	10:18:05:724	103	2	Expectancy_rating	expectancy_rating	0	1500	0	0	79	0	7525	1	When you saw the <b>object</b>,   to what <b>degree (0-100%)</b> did you expect the <b>unpleasant sound to occur</b>?	-16	31	Cue31.jpg	-16	0	0	0
11	2023-04-06	09:27:10	10:18:09	10:18:09:491	104	1	Expectancy_rating	fixation	0	5	1500	0	0	1	1495	1	+	-8	0	0	0	0	0	0
11	2023-04-06	09:27:10	10:18:21	10:18:21:475	104	2	Expectancy_rating	expectancy_rating	0	1000	0	0	44	0	11928	1	When you saw the <b>object</b>,   to what <b>degree (0-100%)</b> did you expect the <b>unpleasant sound to occur</b>?	-16	22	Cue22.jpg	-16	0	0	0
11	2023-04-06	09:27:10	10:18:23	10:18:23:980	105	1	Expectancy_rating	fixation	0	5	500	0	0	1	495	1	+	-8	0	0	0	0	0	0
11	2023-04-06	09:27:10	10:18:26	10:18:26:292	105	2	Expectancy_rating	expectancy_rating	0	500	0	0	75	0	3284	1	When you saw the <b>object</b>,   to what <b>degree (0-100%)</b> did you expect the <b>unpleasant sound to occur</b>?	-15	34	Cue34.jpg	-15	0	0	0
11	2023-04-06	09:27:10	10:18:29	10:18:29:840	106	1	Expectancy_rating	fixation	0	5	1000	0	0	1	995	1	+	0	0	0	0	0	0	0
11	2023-04-06	09:27:10	10:18:34	10:18:34:542	106	2	Expectancy_rating	expectancy_rating	0	1500	0	0	39	0	4673	1	When you saw the <b>object</b>,   to what <b>degree (0-100%)</b> did you expect the <b>unpleasant sound to occur</b>?	-7	12	Cue12.jpg	-7	0	0	0
11	2023-04-06	09:27:10	10:18:37	10:18:37:340	107	1	Expectancy_rating	fixation	0	5	1500	0	0	1	1495	1	+	-8	0	0	0	0	0	0
11	2023-04-06	09:27:10	10:18:41	10:18:41:143	107	2	Expectancy_rating	expectancy_rating	0	1000	0	0	91	0	3747	1	When you saw the <b>object</b>,   to what <b>degree (0-100%)</b> did you expect the <b>unpleasant sound to occur</b>?	-6	2	Cue2.jpg	-6	0	0	0
11	2023-04-06	09:27:10	10:18:44	10:18:44:372	108	1	Expectancy_rating	fixation	0	5	500	0	0	1	495	1	+	-8	0	0	0	0	0	0
11	2023-04-06	09:27:10	10:18:51	10:18:51:243	108	2	Expectancy_rating	expectancy_rating	0	1000	0	0	40	0	6859	1	When you saw the <b>object</b>,   to what <b>degree (0-100%)</b> did you expect the <b>unpleasant sound to occur</b>?	-16	18	Cue18.jpg	-16	0	0	0
11	2023-04-06	09:27:10	10:18:54	10:18:54:186	109	1	Expectancy_rating	fixation	0	5	1000	0	0	1	995	1	+	-9	0	0	0	0	0	0
11	2023-04-06	09:27:10	10:18:58	10:18:58:661	109	2	Expectancy_rating	expectancy_rating	0	500	0	0	33	0	3427	1	When you saw the <b>object</b>,   to what <b>degree (0-100%)</b> did you expect the <b>unpleasant sound to occur</b>?	-16	28	Cue28.jpg	-16	0	0	0
11	2023-04-06	09:27:10	10:19:00	10:19:00:184	110	1	Expectancy_rating	fixation	0	5	1000	0	0	1	995	1	+	-8	0	0	0	0	0	0
11	2023-04-06	09:27:10	10:19:04	10:19:04:727	110	2	Expectancy_rating	expectancy_rating	0	1500	0	0	69	0	3522	1	When you saw the <b>object</b>,   to what <b>degree (0-100%)</b> did you expect the <b>unpleasant sound to occur</b>?	-16	46	Object6.jpg	-16	0	0	0
11	2023-04-06	09:27:10	10:19:07	10:19:07:449	111	1	Expectancy_rating	fixation	0	5	500	0	0	1	495	1	+	-8	0	0	0	0	0	0
11	2023-04-06	09:27:10	10:19:09	10:19:09:361	111	2	Expectancy_rating	expectancy_rating	0	500	0	0	77	0	2862	1	When you saw the <b>object</b>,   to what <b>degree (0-100%)</b> did you expect the <b>unpleasant sound to occur</b>?	-16	35	Cue35.jpg	-16	0	0	0
11	2023-04-06	09:27:10	10:19:12	10:19:12:220	112	1	Expectancy_rating	fixation	0	5	1500	0	0	1	1495	1	+	-8	0	0	0	0	0	0
11	2023-04-06	09:27:10	10:19:17	10:19:17:462	112	2	Expectancy_rating	expectancy_rating	0	1500	0	0	30	0	4223	1	When you saw the <b>object</b>,   to what <b>degree (0-100%)</b> did you expect the <b>unpleasant sound to occur</b>?	-16	6	Cue6.jpg	-16	0	0	0
11	2023-04-06	09:27:10	10:19:20	10:19:20:252	113	1	Expectancy_rating	fixation	0	5	1500	0	0	1	1495	1	+	-9	0	0	0	0	0	0
11	2023-04-06	09:27:10	10:19:27	10:19:27:645	113	2	Expectancy_rating	expectancy_rating	0	1000	0	0	35	0	6350	1	When you saw the <b>object</b>,   to what <b>degree (0-100%)</b> did you expect the <b>unpleasant sound to occur</b>?	-16	23	Cue23.jpg	-16	0	0	0
11	2023-04-06	09:27:10	10:19:29	10:19:29:980	114	1	TNT_Think_CSp	fixation	0	5	500	0	0	1	495	1	+	-8	0	0	0	0	0	0
11	2023-04-06	09:27:10	10:19:30	10:19:30:998	114	2	TNT_Think_CSp	Think	0	5	0	0	0	0	1000	1	THINK	-16	0	0	0	0	0	0
11	2023-04-06	09:27:10	10:19:35	10:19:35:015	114	3	TNT_Think_CSp	TNT_Think_CSp	0	5	0	0	0	0	5000	3	Cue22.jpg	-16	0	0	0	0	0	0
11	2023-04-06	09:27:10	10:19:36	10:19:36:142	114	4	TNT_Think_CSp	Intrusion	0	500	3000	0	81	1	1110	1	How <b>often</b> did you <b>think</b> about the <b>scene</b>?   <center><br><b>NEVER (1)    BRIEFLY (2)   OFTEN (3) </b>	-16	0	0	0	0	0	0
11	2023-04-06	09:27:10	10:19:39	10:19:39:018	115	1	TNT_Object_CSm	fixation	0	5	1000	0	0	1	995	1	+	-9	0	0	0	0	0	0
11	2023-04-06	09:27:10	10:19:40	10:19:40:031	115	2	TNT_Object_CSm	Passive	0	5	0	0	0	0	1000	1	VIEW	-16	0	0	0	0	0	0
11	2023-04-06	09:27:10	10:19:45	10:19:45:048	115	3	TNT_Object_CSm	TNT_Object_CSm	0	500	0	0	0	0	5000	2	Object1.jpg	-16	0	0	0	0	0	0
11	2023-04-06	09:27:10	10:19:47	10:19:47:548	116	1	TNT_NoThink_CSm	fixation	0	5	1000	0	0	1	995	1	+	-9	0	0	0	0	0	0
11	2023-04-06	09:27:10	10:19:48	10:19:48:565	116	2	TNT_NoThink_CSm	NoThink	0	5	0	0	0	0	1000	1	DON'T THINK	-16	0	0	0	0	0	0
11	2023-04-06	09:27:10	10:19:53	10:19:53:582	116	3	TNT_NoThink_CSm	TNT_NoThink_CSm	0	5	0	0	0	0	5000	4	Cue19.jpg	-16	0	0	0	0	0	0
11	2023-04-06	09:27:10	10:19:54	10:19:54:550	116	4	TNT_NoThink_CSm	Intrusion	0	1000	3000	0	80	1	950	1	How <b>often</b> did you <b>think</b> about the <b>scene</b>?   <center><br><b>NEVER (1)    BRIEFLY (2)   OFTEN (3) </b>	-16	0	0	0	0	0	0
11	2023-04-06	09:27:10	10:19:57	10:19:57:086	117	1	TNT_Think_CSm	fixation	0	5	1500	0	0	1	1495	1	+	-8	0	0	0	0	0	0
11	2023-04-06	09:27:10	10:19:58	10:19:58:099	117	2	TNT_Think_CSm	Think	0	5	0	0	0	0	1000	1	THINK	-16	0	0	0	0	0	0
11	2023-04-06	09:27:10	10:20:03	10:20:03:116	117	3	TNT_Think_CSm	TNT_Think_CSm	0	5	0	0	0	0	5000	4	Cue28.jpg	-16	0	0	0	0	0	0
11	2023-04-06	09:27:10	10:20:04	10:20:04:302	117	4	TNT_Think_CSm	Intrusion	0	1500	3000	0	81	1	1168	1	How <b>often</b> did you <b>think</b> about the <b>scene</b>?   <center><br><b>NEVER (1)    BRIEFLY (2)   OFTEN (3) </b>	-16	0	0	0	0	0	0
11	2023-04-06	09:27:10	10:20:07	10:20:07:620	118	1	TNT_NoThink_CSm	fixation	0	5	500	0	0	1	495	1	+	-8	0	0	0	0	0	0
11	2023-04-06	09:27:10	10:20:08	10:20:08:633	118	2	TNT_NoThink_CSm	NoThink	0	5	0	0	0	0	1000	1	DON'T THINK	-16	0	0	0	0	0	0
11	2023-04-06	09:27:10	10:20:13	10:20:13:650	118	3	TNT_NoThink_CSm	TNT_NoThink_CSm	0	5	0	0	0	0	5000	6	Cue4.jpg	-16	0	0	0	0	0	0
11	2023-04-06	09:27:10	10:20:14	10:20:14:438	118	4	TNT_NoThink_CSm	Intrusion	0	1000	3000	0	79	1	770	1	How <b>often</b> did you <b>think</b> about the <b>scene</b>?   <center><br><b>NEVER (1)    BRIEFLY (2)   OFTEN (3) </b>	-16	0	0	0	0	0	0
11	2023-04-06	09:27:10	10:20:17	10:20:17:154	119	1	TNT_Think_CSp	fixation	0	5	1500	0	0	1	1495	1	+	-8	0	0	0	0	0	0
11	2023-04-06	09:27:10	10:20:18	10:20:18:167	119	2	TNT_Think_CSp	Think	0	5	0	0	0	0	1000	1	THINK	-16	0	0	0	0	0	0
11	2023-04-06	09:27:10	10:20:23	10:20:23:184	119	3	TNT_Think_CSp	TNT_Think_CSp	0	5	0	0	0	0	5000	2	Cue21.jpg	-16	0	0	0	0	0	0
11	2023-04-06	09:27:10	10:20:24	10:20:24:030	119	4	TNT_Think_CSp	Intrusion	0	1500	3000	0	81	1	828	1	How <b>often</b> did you <b>think</b> about the <b>scene</b>?   <center><br><b>NEVER (1)    BRIEFLY (2)   OFTEN (3) </b>	-16	0	0	0	0	0	0
11	2023-04-06	09:27:10	10:20:27	10:20:27:188	120	1	TNT_Think_CSm	fixation	0	5	1000	0	0	1	995	1	+	-9	0	0	0	0	0	0
11	2023-04-06	09:27:10	10:20:28	10:20:28:201	120	2	TNT_Think_CSm	Think	0	5	0	0	0	0	1000	1	THINK	-16	0	0	0	0	0	0
11	2023-04-06	09:27:10	10:20:33	10:20:33:218	120	3	TNT_Think_CSm	TNT_Think_CSm	0	5	0	0	0	0	5000	3	Cue35.jpg	-16	0	0	0	0	0	0
11	2023-04-06	09:27:10	10:20:35	10:20:35:654	120	4	TNT_Think_CSm	Intrusion	0	500	3000	0	81	1	1419	1	How <b>often</b> did you <b>think</b> about the <b>scene</b>?   <center><br><b>NEVER (1)    BRIEFLY (2)   OFTEN (3) </b>	-16	0	0	0	0	0	0
11	2023-04-06	09:27:10	10:20:37	10:20:37:722	121	1	TNT_NoThink_CSm	fixation	0	5	500	0	0	1	495	1	+	-9	0	0	0	0	0	0
11	2023-04-06	09:27:10	10:20:38	10:20:38:735	121	2	TNT_NoThink_CSm	NoThink	0	5	0	0	0	0	1000	1	DON'T THINK	-16	0	0	0	0	0	0
11	2023-04-06	09:27:10	10:20:43	10:20:43:752	121	3	TNT_NoThink_CSm	TNT_NoThink_CSm	0	5	0	0	0	0	5000	2	Cue16.jpg	-16	0	0	0	0	0	0
11	2023-04-06	09:27:10	10:20:44	10:20:44:806	121	4	TNT_NoThink_CSm	Intrusion	0	1500	3000	0	79	1	1037	1	How <b>often</b> did you <b>think</b> about the <b>scene</b>?   <center><br><b>NEVER (1)    BRIEFLY (2)   OFTEN (3) </b>	-16	0	0	0	0	0	0
11	2023-04-06	09:27:10	10:20:46	10:20:46:255	122	1	TNT_NoThink_CSp	fixation	0	5	500	0	0	1	495	1	+	-8	0	0	0	0	0	0
11	2023-04-06	09:27:10	10:20:47	10:20:47:269	122	2	TNT_NoThink_CSp	NoThink	0	5	0	0	0	0	1000	1	DON'T THINK	-16	0	0	0	0	0	0
11	2023-04-06	09:27:10	10:20:52	10:20:52:286	122	3	TNT_NoThink_CSp	TNT_NoThink_CSp	0	5	0	0	0	0	5000	1	Cue36.jpg	-16	0	0	0	0	0	0
11	2023-04-06	09:27:10	10:20:53	10:20:53:246	122	4	TNT_NoThink_CSp	Intrusion	0	500	3000	0	79	1	943	1	How <b>often</b> did you <b>think</b> about the <b>scene</b>?   <center><br><b>NEVER (1)    BRIEFLY (2)   OFTEN (3) </b>	-16	0	0	0	0	0	0
11	2023-04-06	09:27:10	10:20:56	10:20:56:290	123	1	TNT_NoThink_CSm	fixation	0	5	1000	0	0	1	995	1	+	-9	0	0	0	0	0	0
11	2023-04-06	09:27:10	10:20:57	10:20:57:303	123	2	TNT_NoThink_CSm	NoThink	0	5	0	0	0	0	1000	1	DON'T THINK	-16	0	0	0	0	0	0
11	2023-04-06	09:27:10	10:21:02	10:21:02:320	123	3	TNT_NoThink_CSm	TNT_NoThink_CSm	0	5	0	0	0	0	5000	3	Cue3.jpg	-16	0	0	0	0	0	0
11	2023-04-06	09:27:10	10:21:04	10:21:04:470	123	4	TNT_NoThink_CSm	Intrusion	0	1000	3000	0	79	1	1133	1	How <b>often</b> did you <b>think</b> about the <b>scene</b>?   <center><br><b>NEVER (1)    BRIEFLY (2)   OFTEN (3) </b>	-16	0	0	0	0	0	0
11	2023-04-06	09:27:10	10:21:07	10:21:07:824	124	1	TNT_Think_CSm	fixation	0	5	1500	0	0	1	1495	1	+	-9	0	0	0	0	0	0
11	2023-04-06	09:27:10	10:21:08	10:21:08:848	124	2	TNT_Think_CSm	Think	0	5	0	0	0	0	1000	1	THINK	-16	0	0	0	0	0	0
11	2023-04-06	09:27:10	10:21:13	10:21:13:854	124	3	TNT_Think_CSm	TNT_Think_CSm	0	5	0	0	0	0	5000	6	Cue33.jpg	-16	0	0	0	0	0	0
11	2023-04-06	09:27:10	10:21:14	10:21:14:366	124	4	TNT_Think_CSm	Intrusion	0	1000	3000	0	81	1	1495	1	How <b>often</b> did you <b>think</b> about the <b>scene</b>?   <center><br><b>NEVER (1)    BRIEFLY (2)   OFTEN (3) </b>	-16	0	0	0	0	0	0
11	2023-04-06	09:27:10	10:21:17	10:21:17:858	125	1	TNT_Object_CSm	fixation	0	5	1000	0	0	1	995	1	+	-8	0	0	0	0	0	0
11	2023-04-06	09:27:10	10:21:18	10:21:18:871	125	2	TNT_Object_CSm	Passive	0	5	0	0	0	0	1000	1	VIEW	-16	0	0	0	0	0	0
11	2023-04-06	09:27:10	10:21:23	10:21:23:888	125	3	TNT_Object_CSm	TNT_Object_CSm	0	1500	0	0	0	0	5000	1	Object8.jpg	-16	0	0	0	0	0	0
11	2023-04-06	09:27:10	10:21:26	10:21:26:887	126	1	TNT_NoThink_CSp	fixation	0	5	1500	0	0	1	1495	1	+	-8	0	0	0	0	0	0
11	2023-04-06	09:27:10	10:21:27	10:21:27:905	126	2	TNT_NoThink_CSp	NoThink	0	5	0	0	0	0	1000	1	DON'T THINK	-16	0	0	0	0	0	0
11	2023-04-06	09:27:10	10:21:32	10:21:32:922	126	3	TNT_NoThink_CSp	TNT_NoThink_CSp	0	5	0	0	0	0	5000	2	Cue20.jpg	-16	0	0	0	0	0	0
11	2023-04-06	09:27:10	10:21:33	10:21:33:06	126	4	TNT_NoThink_CSp	Intrusion	0	500	3000	0	79	1	1067	1	How <b>often</b> did you <b>think</b> about the <b>scene</b>?   <center><br><b>NEVER (1)    BRIEFLY (2)   OFTEN (3) </b>	-16	0	0	0	0	0	0
11	2023-04-06	09:27:10	10:21:36	10:21:36:425	127	1	TNT_Think_CSp	fixation	0	5	500	0	0	1	495	1	+	-8	0	0	0	0	0	0
11	2023-04-06	09:27:10	10:21:37	10:21:37:453	127	2	TNT_Think_CSp	Think	0	5	0	0	0	0	1000	1	THINK	-16	0	0	0	0	0	0
11	2023-04-06	09:27:10	10:21:42	10:21:42:472	127	3	TNT_Think_CSp	TNT_Think_CSp	0	5	0	0	0	0	5000	4	Cue31.jpg	-16	0	0	0	0	0	0
11	2023-04-06	09:27:10	10:21:43	10:21:43:494	127	4	TNT_Think_CSp	Intrusion	0	1500	3000	0	81	1	1004	1	How <b>often</b> did you <b>think</b> about the <b>scene</b>?   <center><br><b>NEVER (1)    BRIEFLY (2)   OFTEN (3) </b>	-16	0	0	0	0	0	0
11	2023-04-06	09:27:10	10:21:46	10:21:46:976	128	1	TNT_NoThink_CSm	fixation	0	5	1500	0	0	1	1495	1	+	-9	0	0	0	0	0	0
11	2023-04-06	09:27:10	10:21:47	10:21:47:989	128	2	TNT_NoThink_CSm	NoThink	0	5	0	0	0	0	1000	1	DON'T THINK	-16	0	0	0	0	0	0
11	2023-04-06	09:27:10	10:21:52	10:21:52:06	128	3	TNT_NoThink_CSm	TNT_NoThink_CSm	0	5	0	0	0	0	5000	5	Cue26.jpg	-16	0	0	0	0	0	0
11	2023-04-06	09:27:10	10:21:54	10:21:54:486	128	4	TNT_NoThink_CSm	Intrusion	0	1000	3000	0	79	1	1462	1	How <b>often</b> did you <b>think</b> about the <b>scene</b>?   <center><br><b>NEVER (1)    BRIEFLY (2)   OFTEN (3) </b>	-16	0	0	0	0	0	0
11	2023-04-06	09:27:10	10:21:56	10:21:56:509	129	1	TNT_Object_CSm	fixation	0	5	500	0	0	1	495	1	+	-8	0	0	0	0	0	0
11	2023-04-06	09:27:10	10:21:57	10:21:57:523	129	2	TNT_Object_CSm	Passive	0	5	0	0	0	0	1000	1	VIEW	-16	0	0	0	0	0	0
11	2023-04-06	09:27:10	10:22:02	10:22:02:540	129	3	TNT_Object_CSm	TNT_Object_CSm	0	500	0	0	0	0	5000	3	Object7.jpg	-16	0	0	0	0	0	0
11	2023-04-06	09:27:10	10:22:03	10:22:03:039	130	1	TNT_Object_CSp	fixation	0	5	1000	0	0	1	995	1	+	-8	0	0	0	0	0	0
11	2023-04-06	09:27:10	10:22:04	10:22:04:057	130	2	TNT_Object_CSp	Passive	0	5	0	0	0	0	1000	1	VIEW	-16	0	0	0	0	0	0
11	2023-04-06	09:27:10	10:22:09	10:22:09:074	130	3	TNT_Object_CSp	TNT_Object_CSp	0	1000	0	0	0	0	5000	1	Object3.jpg	-16	0	0	0	0	0	0
11	2023-04-06	09:27:10	10:22:11	10:22:11:573	131	1	TNT_NoThink_CSp	fixation	0	5	500	0	0	1	495	1	+	-8	0	0	0	0	0	0
11	2023-04-06	09:27:10	10:22:12	10:22:12:591	131	2	TNT_NoThink_CSp	NoThink	0	5	0	0	0	0	1000	1	DON'T THINK	-16	0	0	0	0	0	0
11	2023-04-06	09:27:10	10:22:17	10:22:17:607	131	3	TNT_NoThink_CSp	TNT_NoThink_CSp	0	5	0	0	0	0	5000	4	Cue5.jpg	-16	0	0	0	0	0	0
11	2023-04-06	09:27:10	10:22:18	10:22:18:422	131	4	TNT_NoThink_CSp	Intrusion	0	1500	3000	0	79	1	797	1	How <b>often</b> did you <b>think</b> about the <b>scene</b>?   <center><br><b>NEVER (1)    BRIEFLY (2)   OFTEN (3) </b>	-16	0	0	0	0	0	0
