subject	date	time	currenttime	currenttime_plus_ms	blocknum	trialnum	blockcode	trialcode	pretrialpause	posttrialpause	trialduration	trialtimeout	response	correct	latency	stimulusnumber1	stimulusitem1	stimulusonset1	stimulusnumber2	stimulusitem2	stimulusonset2	stimulusnumber3	stimulusitem3	stimulusonset3
2	2023-03-22	18:07:00	18:07:35	18:07:35:024	2	1	Reminder_Baseline_CSp	fixation	0	5	1000	0	0	1	995	1	+	-16	0	0	0	0	0	0
2	2023-03-22	18:07:00	18:07:40	18:07:40:063	2	2	Reminder_Baseline_CSp	Baseline_CSp	0	5	0	0	0	0	5000	1	+	-16	4	Cue10.jpg	-16	4	Target10.jpg	-16
2	2023-03-22	18:07:00	18:07:48	18:07:48:328	2	3	Reminder_Baseline_CSp	valence	0	5	0	0	50	0	8192	1	I found these images to be...	-4	0	0	0	0	0	0
2	2023-03-22	18:07:00	18:08:01	18:08:01:529	2	4	Reminder_Baseline_CSp	expectancy	0	1500	0	0	30	0	13149	1	When you saw the <b>object-scene</b>,   to what <b>degree (0-100%)</b> did you expect the <b>unpleasant sound to occur</b>?	3	0	0	0	0	0	0
2	2023-03-22	18:07:00	18:08:03	18:08:03:530	3	1	Reminder_Objects_CSp	fixation	0	5	500	0	0	1	495	1	+	-15	0	0	0	0	0	0
2	2023-03-22	18:07:00	18:08:08	18:08:08:546	3	2	Reminder_Objects_CSp	Objects_CSp	0	5	0	0	0	0	5000	4	Object5.jpg	-16	0	0	0	0	0	0
2	2023-03-22	18:07:00	18:08:17	18:08:17:613	3	3	Reminder_Objects_CSp	expectancy_object	0	500	0	0	90	0	9044	1	When you saw the <b>object</b>,   to what <b>degree (0-100%)</b> did you expect the <b>unpleasant sound to occur</b>?	-16	0	0	0	0	0	0
2	2023-03-22	18:07:00	18:08:19	18:08:19:612	4	1	Reminder_Objects_CSp	fixation	0	5	1500	0	0	1	1495	1	+	-15	0	0	0	0	0	0
2	2023-03-22	18:07:00	18:08:24	18:08:24:630	4	2	Reminder_Objects_CSp	Objects_CSp	0	5	0	0	0	0	5000	1	Object1.jpg	-16	0	0	0	0	0	0
2	2023-03-22	18:07:00	18:08:29	18:08:29:164	4	3	Reminder_Objects_CSp	expectancy_object	0	1500	0	0	65	0	4504	1	When you saw the <b>object</b>,   to what <b>degree (0-100%)</b> did you expect the <b>unpleasant sound to occur</b>?	-16	0	0	0	0	0	0
2	2023-03-22	18:07:00	18:08:31	18:08:31:163	5	1	Reminder_Think_CSp	fixation	0	5	500	0	0	1	495	1	+	-13	0	0	0	0	0	0
2	2023-03-22	18:07:00	18:08:36	18:08:36:184	5	2	Reminder_Think_CSp	Think_CSp	0	5	0	0	0	0	5000	1	+	-16	4	Cue23.jpg	-16	4	Target23.jpg	-16
2	2023-03-22	18:07:00	18:08:41	18:08:41:731	5	3	Reminder_Think_CSp	valence	0	5	0	0	35	0	5498	1	I found these images to be...	-16	0	0	0	0	0	0
2	2023-03-22	18:07:00	18:08:47	18:08:47:831	5	4	Reminder_Think_CSp	expectancy	0	1000	0	0	50	0	6035	1	When you saw the <b>object-scene</b>,   to what <b>degree (0-100%)</b> did you expect the <b>unpleasant sound to occur</b>?	-7	0	0	0	0	0	0
2	2023-03-22	18:07:00	18:08:49	18:08:49:816	6	1	Reminder_Think_CSp	fixation	0	5	1000	0	0	1	995	1	+	-14	0	0	0	0	0	0
2	2023-03-22	18:07:00	18:08:54	18:08:54:831	6	2	Reminder_Think_CSp	Think_CSp	0	5	0	0	0	0	5000	1	+	-16	2	Cue4.jpg	-16	2	Target4.jpg	-16
2	2023-03-22	18:07:00	18:08:56	18:08:56:298	6	3	Reminder_Think_CSp	valence	0	5	0	0	50	0	1447	1	I found these images to be...	-16	0	0	0	0	0	0
2	2023-03-22	18:07:00	18:09:02	18:09:02:833	6	4	Reminder_Think_CSp	expectancy	0	500	0	0	69	0	6491	1	When you saw the <b>object-scene</b>,   to what <b>degree (0-100%)</b> did you expect the <b>unpleasant sound to occur</b>?	-10	0	0	0	0	0	0
2	2023-03-22	18:07:00	18:09:04	18:09:04:832	7	1	Reminder_Baseline_CSp	fixation	0	5	1500	0	0	1	1495	1	+	-15	0	0	0	0	0	0
2	2023-03-22	18:07:00	18:09:09	18:09:09:849	7	2	Reminder_Baseline_CSp	Baseline_CSp	0	5	0	0	0	0	5000	1	+	-13	5	Cue35.jpg	-13	5	Target35.jpg	-13
2	2023-03-22	18:07:00	18:09:13	18:09:13:316	7	3	Reminder_Baseline_CSp	valence	0	5	0	0	60	0	3445	1	I found these images to be...	-16	0	0	0	0	0	0
2	2023-03-22	18:07:00	18:09:20	18:09:20:200	7	4	Reminder_Baseline_CSp	expectancy	0	500	0	0	20	0	6818	1	When you saw the <b>object-scene</b>,   to what <b>degree (0-100%)</b> did you expect the <b>unpleasant sound to occur</b>?	-10	0	0	0	0	0	0
2	2023-03-22	18:07:00	18:09:22	18:09:22:183	8	1	Reminder_Baseline_CSm	fixation	0	5	1500	0	0	1	1495	1	+	-13	0	0	0	0	0	0
2	2023-03-22	18:07:00	18:09:27	18:09:27:203	8	2	Reminder_Baseline_CSm	Baseline_CSm	0	5	0	0	0	0	5000	1	+	-5	1	Cue20.jpg	-5	1	Target20.jpg	-5
2	2023-03-22	18:07:00	18:09:32	18:09:32:517	8	3	Reminder_Baseline_CSm	valence	0	5	0	0	30	0	5262	1	I found these images to be...	-16	0	0	0	0	0	0
2	2023-03-22	18:07:00	18:09:42	18:09:42:452	8	4	Reminder_Baseline_CSm	expectancy	0	1500	0	0	0	0	9872	1	When you saw the <b>object-scene</b>,   to what <b>degree (0-100%)</b> did you expect the <b>unpleasant sound to occur</b>?	-7	0	0	0	0	0	0
2	2023-03-22	18:07:00	18:09:44	18:09:44:956	9	1	Reminder_Baseline_CSp	fixation	0	5	1000	0	0	1	995	1	+	-8	0	0	0	0	0	0
2	2023-03-22	18:07:00	18:09:49	18:09:49:971	9	2	Reminder_Baseline_CSp	Baseline_CSp	0	5	0	0	0	0	5000	1	+	-16	3	Cue28.jpg	-16	3	Target28.jpg	-16
2	2023-03-22	18:07:00	18:09:51	18:09:51:885	9	3	Reminder_Baseline_CSp	valence	0	5	0	0	50	0	1886	1	I found these images to be...	-16	0	0	0	0	0	0
2	2023-03-22	18:07:00	18:09:55	18:09:55:419	9	4	Reminder_Baseline_CSp	expectancy	0	1000	0	0	70	0	3489	1	When you saw the <b>object-scene</b>,   to what <b>degree (0-100%)</b> did you expect the <b>unpleasant sound to occur</b>?	0	0	0	0	0	0	0
2	2023-03-22	18:07:00	18:09:56	18:09:56:922	10	1	PracticeItems_NoThink	fixation	0	5	500	0	0	1	495	1	+	-8	0	0	0	0	0	0
2	2023-03-22	18:07:00	18:10:01	18:10:01:938	10	2	PracticeItems_NoThink	PracticeItems_NoThink	0	5	0	0	0	0	5000	1	+	-16	1	Cue39.jpg	-16	1	Target39.jpg	-16
2	2023-03-22	18:07:00	18:10:06	18:10:06:020	10	3	PracticeItems_NoThink	valence	0	5	0	0	41	0	4055	1	I found these images to be...	-16	0	0	0	0	0	0
2	2023-03-22	18:07:00	18:10:11	18:10:11:270	10	4	PracticeItems_NoThink	expectancy	0	1500	0	0	80	0	5202	1	When you saw the <b>object-scene</b>,   to what <b>degree (0-100%)</b> did you expect the <b>unpleasant sound to occur</b>?	0	0	0	0	0	0	0
2	2023-03-22	18:07:00	18:10:13	18:10:13:269	11	1	Reminder_Objects_CSm	fixation	0	5	500	0	0	1	495	1	+	-14	0	0	0	0	0	0
2	2023-03-22	18:07:00	18:10:18	18:10:18:289	11	2	Reminder_Objects_CSm	Objects_CSm	0	5	0	0	0	0	5000	4	Object2.jpg	-15	0	0	0	0	0	0
2	2023-03-22	18:07:00	18:10:20	18:10:20:887	11	3	Reminder_Objects_CSm	expectancy_object	0	1000	0	0	2	0	2544	1	When you saw the <b>object</b>,   to what <b>degree (0-100%)</b> did you expect the <b>unpleasant sound to occur</b>?	-16	0	0	0	0	0	0
2	2023-03-22	18:07:00	18:10:22	18:10:22:873	12	1	Reminder_Think_CSm	fixation	0	5	1000	0	0	1	995	1	+	-5	0	0	0	0	0	0
2	2023-03-22	18:07:00	18:10:27	18:10:27:890	12	2	Reminder_Think_CSm	Think_CSm	0	5	0	0	0	0	5000	1	+	-16	1	Cue21.jpg	-16	1	Target21.jpg	-16
2	2023-03-22	18:07:00	18:10:31	18:10:31:955	12	3	Reminder_Think_CSm	valence	0	5	0	0	40	0	4039	1	I found these images to be...	-16	0	0	0	0	0	0
2	2023-03-22	18:07:00	18:10:38	18:10:38:105	12	4	Reminder_Think_CSm	expectancy	0	1000	0	0	65	0	6116	1	When you saw the <b>object-scene</b>,   to what <b>degree (0-100%)</b> did you expect the <b>unpleasant sound to occur</b>?	0	0	0	0	0	0	0
2	2023-03-22	18:07:00	18:10:40	18:10:40:604	13	1	Reminder_Baseline_CSm	fixation	0	5	1500	0	0	1	1495	1	+	-15	0	0	0	0	0	0
2	2023-03-22	18:07:00	18:10:45	18:10:45:621	13	2	Reminder_Baseline_CSm	Baseline_CSm	0	5	0	0	0	0	5000	1	+	-16	3	Cue27.jpg	-16	3	Target27.jpg	-16
2	2023-03-22	18:07:00	18:10:49	18:10:49:105	13	3	Reminder_Baseline_CSm	valence	0	5	0	0	30	0	3432	1	I found these images to be...	-16	0	0	0	0	0	0
2	2023-03-22	18:07:00	18:10:52	18:10:52:072	13	4	Reminder_Baseline_CSm	expectancy	0	500	0	0	20	0	2900	1	When you saw the <b>object-scene</b>,   to what <b>degree (0-100%)</b> did you expect the <b>unpleasant sound to occur</b>?	-10	0	0	0	0	0	0
2	2023-03-22	18:07:00	18:10:53	18:10:53:054	14	1	PracticeItems_Think	fixation	0	5	500	0	0	1	495	1	+	-14	0	0	0	0	0	0
2	2023-03-22	18:07:00	18:10:58	18:10:58:072	14	2	PracticeItems_Think	PracticeItems_Think	0	5	0	0	0	0	5000	1	+	-14	1	Cue37.jpg	-14	1	Target37.jpg	-14
2	2023-03-22	18:07:00	18:11:08	18:11:08:056	14	3	PracticeItems_Think	valence	0	5	0	0	50	0	9957	1	I found these images to be...	-16	0	0	0	0	0	0
2	2023-03-22	18:07:00	18:11:14	18:11:14:074	14	4	PracticeItems_Think	expectancy	0	1000	0	0	40	0	5973	1	When you saw the <b>object-scene</b>,   to what <b>degree (0-100%)</b> did you expect the <b>unpleasant sound to occur</b>?	0	0	0	0	0	0	0
2	2023-03-22	18:07:00	18:11:16	18:11:16:574	15	1	Reminder_Think_CSm	fixation	0	5	1500	0	0	1	1495	1	+	-10	0	0	0	0	0	0
2	2023-03-22	18:07:00	18:11:21	18:11:21:592	15	2	Reminder_Think_CSm	Think_CSm	0	5	0	0	0	0	5000	1	+	-16	2	Cue33.jpg	-16	2	Target33.jpg	-16
2	2023-03-22	18:07:00	18:11:30	18:11:30:108	15	3	Reminder_Think_CSm	valence	0	5	0	0	14	0	8488	1	I found these images to be...	-16	0	0	0	0	0	0
2	2023-03-22	18:07:00	18:11:34	18:11:34:591	15	4	Reminder_Think_CSm	expectancy	0	500	0	0	75	0	4442	1	When you saw the <b>object-scene</b>,   to what <b>degree (0-100%)</b> did you expect the <b>unpleasant sound to occur</b>?	0	0	0	0	0	0	0
2	2023-03-22	18:07:00	18:11:36	18:11:36:092	16	1	Reminder_NoThink_CSp	fixation	0	5	1000	0	0	1	995	1	+	-10	0	0	0	0	0	0
2	2023-03-22	18:07:00	18:11:41	18:11:41:110	16	2	Reminder_NoThink_CSp	NoThink_CSp	0	5	0	0	0	0	5000	1	+	-16	1	Cue29.jpg	-16	1	Target29.jpg	-16
2	2023-03-22	18:07:00	18:11:43	18:11:43:775	16	3	Reminder_NoThink_CSp	valence	0	5	0	0	60	0	2634	1	I found these images to be...	-16	0	0	0	0	0	0
2	2023-03-22	18:07:00	18:11:48	18:11:48:859	16	4	Reminder_NoThink_CSp	expectancy	0	1500	0	0	71	0	5038	1	When you saw the <b>object-scene</b>,   to what <b>degree (0-100%)</b> did you expect the <b>unpleasant sound to occur</b>?	0	0	0	0	0	0	0
2	2023-03-22	18:07:00	18:11:51	18:11:51:861	17	1	Reminder_NoThink_CSm	fixation	0	5	1500	0	0	1	1495	1	+	-10	0	0	0	0	0	0
2	2023-03-22	18:07:00	18:11:56	18:11:56:879	17	2	Reminder_NoThink_CSm	NoThink_CSm	0	5	0	0	0	0	5000	1	+	-16	6	Cue34.jpg	-16	6	Target34.jpg	-16
2	2023-03-22	18:07:00	18:12:00	18:12:00:326	17	3	Reminder_NoThink_CSm	valence	0	5	0	0	24	0	3419	1	I found these images to be...	-16	0	0	0	0	0	0
2	2023-03-22	18:07:00	18:12:06	18:12:06:377	17	4	Reminder_NoThink_CSm	expectancy	0	1000	0	0	85	0	6007	1	When you saw the <b>object-scene</b>,   to what <b>degree (0-100%)</b> did you expect the <b>unpleasant sound to occur</b>?	0	0	0	0	0	0	0
2	2023-03-22	18:07:00	18:12:07	18:12:07:880	18	1	Reminder_Think_CSp	fixation	0	5	500	0	0	1	495	1	+	-9	0	0	0	0	0	0
2	2023-03-22	18:07:00	18:12:12	18:12:12:896	18	2	Reminder_Think_CSp	Think_CSp	0	5	0	0	0	0	5000	1	+	-16	1	Cue5.jpg	-16	1	Target5.jpg	-16
2	2023-03-22	18:07:00	18:12:14	18:12:14:143	18	3	Reminder_Think_CSp	valence	0	5	0	0	50	0	1193	1	I found these images to be...	-16	0	0	0	0	0	0
2	2023-03-22	18:07:00	18:12:21	18:12:21:461	18	4	Reminder_Think_CSp	expectancy	0	1500	0	0	10	0	7270	1	When you saw the <b>object-scene</b>,   to what <b>degree (0-100%)</b> did you expect the <b>unpleasant sound to occur</b>?	-6	0	0	0	0	0	0
2	2023-03-22	18:07:00	18:12:23	18:12:23:960	19	1	Reminder_NoThink_CSp	fixation	0	5	1000	0	0	1	995	1	+	-15	0	0	0	0	0	0
2	2023-03-22	18:07:00	18:12:28	18:12:28:978	19	2	Reminder_NoThink_CSp	NoThink_CSp	0	5	0	0	0	0	5000	1	+	-16	4	Cue32.jpg	-16	4	Target32.jpg	-16
2	2023-03-22	18:07:00	18:12:32	18:12:32:995	19	3	Reminder_NoThink_CSp	valence	0	5	0	0	40	0	3987	1	I found these images to be...	-16	0	0	0	0	0	0
2	2023-03-22	18:07:00	18:12:38	18:12:38:379	19	4	Reminder_NoThink_CSp	expectancy	0	500	0	0	60	0	5346	1	When you saw the <b>object-scene</b>,   to what <b>degree (0-100%)</b> did you expect the <b>unpleasant sound to occur</b>?	-12	0	0	0	0	0	0
2	2023-03-22	18:07:00	18:12:40	18:12:40:378	20	1	Reminder_NoThink_CSm	fixation	0	5	1500	0	0	1	1495	1	+	-15	0	0	0	0	0	0
2	2023-03-22	18:07:00	18:12:45	18:12:45:398	20	2	Reminder_NoThink_CSm	NoThink_CSm	0	5	0	0	0	0	5000	1	+	-16	5	Cue6.jpg	-16	5	Target6.jpg	-16
2	2023-03-22	18:07:00	18:12:48	18:12:48:063	20	3	Reminder_NoThink_CSm	valence	0	5	0	0	50	0	2634	1	I found these images to be...	-16	0	0	0	0	0	0
2	2023-03-22	18:07:00	18:12:53	18:12:53:630	20	4	Reminder_NoThink_CSm	expectancy	0	1500	0	0	76	0	5526	1	When you saw the <b>object-scene</b>,   to what <b>degree (0-100%)</b> did you expect the <b>unpleasant sound to occur</b>?	7	0	0	0	0	0	0
2	2023-03-22	18:07:00	18:12:55	18:12:55:628	21	1	Reminder_Objects_CSp	fixation	0	5	500	0	0	1	495	1	+	-14	0	0	0	0	0	0
2	2023-03-22	18:07:00	18:13:00	18:13:00:646	21	2	Reminder_Objects_CSp	Objects_CSp	0	5	0	0	0	0	5000	3	Object8.jpg	-14	0	0	0	0	0	0
2	2023-03-22	18:07:00	18:13:04	18:13:04:580	21	3	Reminder_Objects_CSp	expectancy_object	0	500	0	0	80	0	3911	1	When you saw the <b>object</b>,   to what <b>degree (0-100%)</b> did you expect the <b>unpleasant sound to occur</b>?	-16	0	0	0	0	0	0
2	2023-03-22	18:07:00	18:13:06	18:13:06:079	22	1	Reminder_Think_CSm	fixation	0	5	1000	0	0	1	995	1	+	-15	0	0	0	0	0	0
2	2023-03-22	18:07:00	18:13:11	18:13:11:097	22	2	Reminder_Think_CSm	Think_CSm	0	5	0	0	0	0	5000	1	+	-14	5	Cue13.jpg	-14	5	Target13.jpg	-14
2	2023-03-22	18:07:00	18:13:15	18:13:15:731	22	3	Reminder_Think_CSm	valence	0	5	0	0	25	0	4604	1	I found these images to be...	-16	0	0	0	0	0	0
2	2023-03-22	18:07:00	18:13:22	18:13:22:547	22	4	Reminder_Think_CSm	expectancy	0	1000	0	0	10	0	6770	1	When you saw the <b>object-scene</b>,   to what <b>degree (0-100%)</b> did you expect the <b>unpleasant sound to occur</b>?	-10	0	0	0	0	0	0
2	2023-03-22	18:07:00	18:13:25	18:13:25:046	23	1	Reminder_NoThink_CSp	fixation	0	5	1500	0	0	1	1495	1	+	-15	0	0	0	0	0	0
2	2023-03-22	18:07:00	18:13:30	18:13:30:065	23	2	Reminder_NoThink_CSp	NoThink_CSp	0	5	0	0	0	0	5000	1	+	-14	2	Cue24.jpg	-14	2	Target24.jpg	-14
2	2023-03-22	18:07:00	18:13:31	18:13:31:532	23	3	Reminder_NoThink_CSp	valence	0	5	0	0	50	0	1444	1	I found these images to be...	-16	0	0	0	0	0	0
2	2023-03-22	18:07:00	18:13:39	18:13:39:732	23	4	Reminder_NoThink_CSp	expectancy	0	500	0	0	7	0	8153	1	When you saw the <b>object-scene</b>,   to what <b>degree (0-100%)</b> did you expect the <b>unpleasant sound to occur</b>?	-12	0	0	0	0	0	0
2	2023-03-22	18:07:00	18:13:41	18:13:41:235	24	1	Reminder_Think_CSm	fixation	0	5	1000	0	0	1	995	1	+	-9	0	0	0	0	0	0
2	2023-03-22	18:07:00	18:13:46	18:13:46:252	24	2	Reminder_Think_CSm	Think_CSm	0	5	0	0	0	0	5000	1	+	-16	4	Cue7.jpg	-16	4	Target7.jpg	-16
2	2023-03-22	18:07:00	18:13:51	18:13:51:382	24	3	Reminder_Think_CSm	valence	0	5	0	0	20	0	5100	1	I found these images to be...	-16	0	0	0	0	0	0
2	2023-03-22	18:07:00	18:13:55	18:13:55:561	24	4	Reminder_Think_CSm	expectancy	0	1500	0	0	69	0	4110	1	When you saw the <b>object-scene</b>,   to what <b>degree (0-100%)</b> did you expect the <b>unpleasant sound to occur</b>?	0	0	0	0	0	0	0
2	2023-03-22	18:07:00	18:13:57	18:13:57:551	25	1	PracticeItems_Think	fixation	0	5	500	0	0	1	495	1	+	-8	0	0	0	0	0	0
2	2023-03-22	18:07:00	18:14:02	18:14:02:569	25	2	PracticeItems_Think	PracticeItems_Think	0	5	0	0	0	0	5000	1	+	-16	2	Cue38.jpg	-16	2	Target38.jpg	-16
2	2023-03-22	18:07:00	18:14:06	18:14:06:101	25	3	PracticeItems_Think	valence	0	5	0	0	11	0	3503	1	I found these images to be...	-16	0	0	0	0	0	0
2	2023-03-22	18:07:00	18:14:09	18:14:09:800	25	4	PracticeItems_Think	expectancy	0	1000	0	0	60	0	3632	1	When you saw the <b>object-scene</b>,   to what <b>degree (0-100%)</b> did you expect the <b>unpleasant sound to occur</b>?	0	0	0	0	0	0	0
2	2023-03-22	18:07:00	18:14:11	18:14:11:287	26	1	Reminder_NoThink_CSm	fixation	0	5	500	0	0	1	495	1	+	-9	0	0	0	0	0	0
2	2023-03-22	18:07:00	18:14:16	18:14:16:303	26	2	Reminder_NoThink_CSm	NoThink_CSm	0	5	0	0	0	0	5000	1	+	-16	4	Cue14.jpg	-16	4	Target14.jpg	-16
2	2023-03-22	18:07:00	18:14:23	18:14:23:684	26	3	Reminder_NoThink_CSm	valence	0	5	0	0	14	0	7329	1	I found these images to be...	-16	0	0	0	0	0	0
2	2023-03-22	18:07:00	18:14:30	18:14:30:102	26	4	Reminder_NoThink_CSm	expectancy	0	500	0	0	11	0	6368	1	When you saw the <b>object-scene</b>,   to what <b>degree (0-100%)</b> did you expect the <b>unpleasant sound to occur</b>?	-7	0	0	0	0	0	0
2	2023-03-22	18:07:00	18:14:31	18:14:31:605	27	1	Reminder_Baseline_CSm	fixation	0	5	1000	0	0	1	995	1	+	-8	0	0	0	0	0	0
2	2023-03-22	18:07:00	18:14:36	18:14:36:621	27	2	Reminder_Baseline_CSm	Baseline_CSm	0	5	0	0	0	0	5000	1	+	-16	5	Cue2.jpg	-16	5	Target2.jpg	-16
2	2023-03-22	18:07:00	18:14:43	18:14:43:403	27	3	Reminder_Baseline_CSm	valence	0	5	0	0	20	0	6755	1	I found these images to be...	-16	0	0	0	0	0	0
2	2023-03-22	18:07:00	18:14:52	18:14:52:186	27	4	Reminder_Baseline_CSm	expectancy	0	500	0	0	60	0	8714	1	When you saw the <b>object-scene</b>,   to what <b>degree (0-100%)</b> did you expect the <b>unpleasant sound to occur</b>?	0	0	0	0	0	0	0
2	2023-03-22	18:07:00	18:14:54	18:14:54:173	28	1	Reminder_NoThink_CSp	fixation	0	5	1500	0	0	1	1495	1	+	-6	0	0	0	0	0	0
2	2023-03-22	18:07:00	18:14:59	18:14:59:189	28	2	Reminder_NoThink_CSp	NoThink_CSp	0	5	0	0	0	0	5000	1	+	-16	6	Cue31.jpg	-16	6	Target31.jpg	-16
2	2023-03-22	18:07:00	18:15:05	18:15:05:337	28	3	Reminder_NoThink_CSp	valence	0	5	0	0	3	0	6123	1	I found these images to be...	-16	0	0	0	0	0	0
2	2023-03-22	18:07:00	18:15:09	18:15:09:864	28	4	Reminder_NoThink_CSp	expectancy	0	1500	0	0	75	0	4460	1	When you saw the <b>object-scene</b>,   to what <b>degree (0-100%)</b> did you expect the <b>unpleasant sound to occur</b>?	0	0	0	0	0	0	0
2	2023-03-22	18:07:00	18:15:12	18:15:12:854	29	1	Reminder_Baseline_CSm	fixation	0	5	1500	0	0	1	1495	1	+	-9	0	0	0	0	0	0
2	2023-03-22	18:07:00	18:15:17	18:15:17:874	29	2	Reminder_Baseline_CSm	Baseline_CSm	0	5	0	0	0	0	5000	1	+	-16	4	Cue3.jpg	-16	4	Target3.jpg	-16
2	2023-03-22	18:07:00	18:15:27	18:15:27:722	29	3	Reminder_Baseline_CSm	valence	0	5	0	0	30	0	9822	1	I found these images to be...	-16	0	0	0	0	0	0
2	2023-03-22	18:07:00	18:15:31	18:15:31:622	29	4	Reminder_Baseline_CSm	expectancy	0	1000	0	0	74	0	3827	1	When you saw the <b>object-scene</b>,   to what <b>degree (0-100%)</b> did you expect the <b>unpleasant sound to occur</b>?	0	0	0	0	0	0	0
2	2023-03-22	18:07:00	18:15:33	18:15:33:609	30	1	Reminder_NoThink_CSm	fixation	0	5	1000	0	0	1	995	1	+	-7	0	0	0	0	0	0
2	2023-03-22	18:07:00	18:15:38	18:15:38:625	30	2	Reminder_NoThink_CSm	NoThink_CSm	0	5	0	0	0	0	5000	1	+	-16	2	Cue30.jpg	-16	2	Target30.jpg	-16
2	2023-03-22	18:07:00	18:15:48	18:15:48:873	30	3	Reminder_NoThink_CSm	valence	0	5	0	0	40	0	10223	1	I found these images to be...	-16	0	0	0	0	0	0
2	2023-03-22	18:07:00	18:15:52	18:15:52:590	30	4	Reminder_NoThink_CSm	expectancy	0	500	0	0	96	0	3668	1	When you saw the <b>object-scene</b>,   to what <b>degree (0-100%)</b> did you expect the <b>unpleasant sound to occur</b>?	0	0	0	0	0	0	0
2	2023-03-22	18:07:00	18:15:53	18:15:53:591	31	1	Reminder_Baseline_CSp	fixation	0	5	500	0	0	1	495	1	+	-13	0	0	0	0	0	0
2	2023-03-22	18:07:00	18:15:58	18:15:58:610	31	2	Reminder_Baseline_CSp	Baseline_CSp	0	5	0	0	0	0	5000	1	+	-16	6	Cue16.jpg	-16	6	Target16.jpg	-16
2	2023-03-22	18:07:00	18:16:02	18:16:02:674	31	3	Reminder_Baseline_CSp	valence	0	5	0	0	54	0	4015	1	I found these images to be...	-16	0	0	0	0	0	0
2	2023-03-22	18:07:00	18:16:08	18:16:08:875	31	4	Reminder_Baseline_CSp	expectancy	0	1500	0	0	21	0	6155	1	When you saw the <b>object-scene</b>,   to what <b>degree (0-100%)</b> did you expect the <b>unpleasant sound to occur</b>?	-8	0	0	0	0	0	0
2	2023-03-22	18:07:00	18:16:11	18:16:11:874	32	1	Reminder_Think_CSp	fixation	0	5	1500	0	0	1	1495	1	+	-14	0	0	0	0	0	0
2	2023-03-22	18:07:00	18:16:16	18:16:16:891	32	2	Reminder_Think_CSp	Think_CSp	0	5	0	0	0	0	5000	1	+	-16	3	Cue36.jpg	-16	3	Target36.jpg	-16
2	2023-03-22	18:07:00	18:16:22	18:16:22:825	32	3	Reminder_Think_CSp	valence	0	5	0	0	31	0	5906	1	I found these images to be...	-16	0	0	0	0	0	0
2	2023-03-22	18:07:00	18:16:27	18:16:27:392	32	4	Reminder_Think_CSp	expectancy	0	1000	0	0	65	0	4524	1	When you saw the <b>object-scene</b>,   to what <b>degree (0-100%)</b> did you expect the <b>unpleasant sound to occur</b>?	-12	0	0	0	0	0	0
2	2023-03-22	18:07:00	18:16:28	18:16:28:891	33	1	Reminder_Think_CSp	fixation	0	5	500	0	0	1	495	1	+	-14	0	0	0	0	0	0
2	2023-03-22	18:07:00	18:16:33	18:16:33:909	33	2	Reminder_Think_CSp	Think_CSp	0	5	0	0	0	0	5000	1	+	-16	5	Cue9.jpg	-16	5	Target9.jpg	-16
2	2023-03-22	18:07:00	18:16:42	18:16:42:827	33	3	Reminder_Think_CSp	valence	0	5	0	0	59	0	8889	1	I found these images to be...	-16	0	0	0	0	0	0
2	2023-03-22	18:07:00	18:16:48	18:16:48:403	33	4	Reminder_Think_CSp	expectancy	0	1000	0	0	11	0	5507	1	When you saw the <b>object-scene</b>,   to what <b>degree (0-100%)</b> did you expect the <b>unpleasant sound to occur</b>?	-12	0	0	0	0	0	0
2	2023-03-22	18:07:00	18:16:50	18:16:50:390	34	1	Reminder_Baseline_CSm	fixation	0	5	1000	0	0	1	995	1	+	-9	0	0	0	0	0	0
2	2023-03-22	18:07:00	18:16:55	18:16:55:413	34	2	Reminder_Baseline_CSm	Baseline_CSm	0	5	0	0	0	0	5000	1	+	-5	2	Cue17.jpg	-5	2	Target17.jpg	-5
2	2023-03-22	18:07:00	18:17:01	18:17:01:777	34	3	Reminder_Baseline_CSm	valence	0	5	0	0	40	0	6315	1	I found these images to be...	-16	0	0	0	0	0	0
2	2023-03-22	18:07:00	18:17:10	18:17:10:461	34	4	Reminder_Baseline_CSm	expectancy	0	500	0	0	80	0	8595	1	When you saw the <b>object-scene</b>,   to what <b>degree (0-100%)</b> did you expect the <b>unpleasant sound to occur</b>?	-8	0	0	0	0	0	0
2	2023-03-22	18:07:00	18:17:11	18:17:11:948	35	1	Reminder_Objects_CSp	fixation	0	5	1000	0	0	1	995	1	+	-9	0	0	0	0	0	0
2	2023-03-22	18:07:00	18:17:16	18:17:16:963	35	2	Reminder_Objects_CSp	Objects_CSp	0	5	0	0	0	0	5000	2	Object4.jpg	-16	0	0	0	0	0	0
2	2023-03-22	18:07:00	18:17:19	18:17:19:612	35	3	Reminder_Objects_CSp	expectancy_object	0	1000	0	0	65	0	2596	1	When you saw the <b>object</b>,   to what <b>degree (0-100%)</b> did you expect the <b>unpleasant sound to occur</b>?	-16	0	0	0	0	0	0
2	2023-03-22	18:07:00	18:17:22	18:17:22:097	36	1	Reminder_Baseline_CSp	fixation	0	5	1500	0	0	1	1495	1	+	-9	0	0	0	0	0	0
2	2023-03-22	18:07:00	18:17:27	18:17:27:115	36	2	Reminder_Baseline_CSp	Baseline_CSp	0	5	0	0	0	0	5000	1	+	-16	1	Cue1.jpg	-16	1	Target1.jpg	-16
2	2023-03-22	18:07:00	18:17:30	18:17:30:629	36	3	Reminder_Baseline_CSp	valence	0	5	0	0	40	0	3461	1	I found these images to be...	-16	0	0	0	0	0	0
2	2023-03-22	18:07:00	18:17:37	18:17:37:279	36	4	Reminder_Baseline_CSp	expectancy	0	1500	0	0	70	0	6567	1	When you saw the <b>object-scene</b>,   to what <b>degree (0-100%)</b> did you expect the <b>unpleasant sound to occur</b>?	-8	0	0	0	0	0	0
2	2023-03-22	18:07:00	18:17:39	18:17:39:264	37	1	Reminder_NoThink_CSp	fixation	0	5	500	0	0	1	495	1	+	-10	0	0	0	0	0	0
2	2023-03-22	18:07:00	18:17:44	18:17:44:282	37	2	Reminder_NoThink_CSp	NoThink_CSp	0	5	0	0	0	0	5000	1	+	-16	3	Cue8.jpg	-16	3	Target8.jpg	-16
2	2023-03-22	18:07:00	18:17:49	18:17:49:426	37	3	Reminder_NoThink_CSp	valence	0	5	0	0	69	0	5093	1	I found these images to be...	-16	0	0	0	0	0	0
2	2023-03-22	18:07:00	18:17:59	18:17:59:514	37	4	Reminder_NoThink_CSp	expectancy	0	1500	0	0	80	0	10055	1	When you saw the <b>object-scene</b>,   to what <b>degree (0-100%)</b> did you expect the <b>unpleasant sound to occur</b>?	2	0	0	0	0	0	0
2	2023-03-22	18:07:00	18:18:01	18:18:01:017	38	1	Reminder_Baseline_CSm	fixation	0	5	1000	0	0	1	995	1	+	-6	0	0	0	0	0	0
2	2023-03-22	18:07:00	18:18:07	18:18:07:034	38	2	Reminder_Baseline_CSm	Baseline_CSm	0	5	0	0	0	0	5000	1	+	-16	6	Cue26.jpg	-16	6	Target26.jpg	-16
2	2023-03-22	18:07:00	18:18:12	18:18:12:716	38	3	Reminder_Baseline_CSm	valence	0	5	0	0	60	0	5654	1	I found these images to be...	-16	0	0	0	0	0	0
2	2023-03-22	18:07:00	18:18:15	18:18:15:566	38	4	Reminder_Baseline_CSm	expectancy	0	500	0	0	50	0	2802	1	When you saw the <b>object-scene</b>,   to what <b>degree (0-100%)</b> did you expect the <b>unpleasant sound to occur</b>?	0	0	0	0	0	0	0
2	2023-03-22	18:07:00	18:18:16	18:18:16:566	39	1	Reminder_Think_CSp	fixation	0	5	500	0	0	1	495	1	+	-15	0	0	0	0	0	0
2	2023-03-22	18:07:00	18:18:21	18:18:21:582	39	2	Reminder_Think_CSp	Think_CSp	0	5	0	0	0	0	5000	1	+	-16	6	Cue12.jpg	-16	6	Target12.jpg	-16
2	2023-03-22	18:07:00	18:18:24	18:18:24:849	39	3	Reminder_Think_CSp	valence	0	5	0	0	50	0	3239	1	I found these images to be...	-16	0	0	0	0	0	0
2	2023-03-22	18:07:00	18:18:34	18:18:34:983	39	4	Reminder_Think_CSp	expectancy	0	1000	0	0	10	0	10060	1	When you saw the <b>object-scene</b>,   to what <b>degree (0-100%)</b> did you expect the <b>unpleasant sound to occur</b>?	-12	0	0	0	0	0	0
2	2023-03-22	18:07:00	18:18:37	18:18:37:468	40	1	Reminder_Baseline_CSp	fixation	0	5	1500	0	0	1	1495	1	+	-9	0	0	0	0	0	0
2	2023-03-22	18:07:00	18:18:42	18:18:42:486	40	2	Reminder_Baseline_CSp	Baseline_CSp	0	5	0	0	0	0	5000	1	+	-16	2	Cue18.jpg	-16	2	Target18.jpg	-16
2	2023-03-22	18:07:00	18:18:50	18:18:50:134	40	3	Reminder_Baseline_CSp	valence	0	5	0	0	20	0	7594	1	I found these images to be...	-16	0	0	0	0	0	0
2	2023-03-22	18:07:00	18:18:59	18:18:59:151	40	4	Reminder_Baseline_CSp	expectancy	0	1000	0	0	69	0	8943	1	When you saw the <b>object-scene</b>,   to what <b>degree (0-100%)</b> did you expect the <b>unpleasant sound to occur</b>?	-7	0	0	0	0	0	0
2	2023-03-22	18:07:00	18:19:01	18:19:01:637	41	1	Reminder_NoThink_CSm	fixation	0	5	1500	0	0	1	1495	1	+	-9	0	0	0	0	0	0
2	2023-03-22	18:07:00	18:19:06	18:19:06:654	41	2	Reminder_NoThink_CSm	NoThink_CSm	0	5	0	0	0	0	5000	1	+	-16	3	Cue19.jpg	-16	3	Target19.jpg	-16
2	2023-03-22	18:07:00	18:19:14	18:19:14:119	41	3	Reminder_NoThink_CSm	valence	0	5	0	0	24	0	7442	1	I found these images to be...	-16	0	0	0	0	0	0
2	2023-03-22	18:07:00	18:19:18	18:19:18:735	41	4	Reminder_NoThink_CSm	expectancy	0	500	0	0	6	0	4550	1	When you saw the <b>object-scene</b>,   to what <b>degree (0-100%)</b> did you expect the <b>unpleasant sound to occur</b>?	0	0	0	0	0	0	0
2	2023-03-22	18:07:00	18:19:20	18:19:20:218	42	1	Reminder_NoThink_CSm	fixation	0	5	1000	0	0	1	995	1	+	-14	0	0	0	0	0	0
2	2023-03-22	18:07:00	18:19:25	18:19:25:236	42	2	Reminder_NoThink_CSm	NoThink_CSm	0	5	0	0	0	0	5000	1	+	-16	1	Cue25.jpg	-16	1	Target25.jpg	-16
2	2023-03-22	18:07:00	18:19:30	18:19:30:386	42	3	Reminder_NoThink_CSm	valence	0	5	0	0	20	0	5097	1	I found these images to be...	-16	0	0	0	0	0	0
2	2023-03-22	18:07:00	18:19:33	18:19:33:503	42	4	Reminder_NoThink_CSm	expectancy	0	1500	0	0	82	0	3074	1	When you saw the <b>object-scene</b>,   to what <b>degree (0-100%)</b> did you expect the <b>unpleasant sound to occur</b>?	-8	0	0	0	0	0	0
2	2023-03-22	18:07:00	18:19:35	18:19:35:502	43	1	Reminder_Objects_CSm	fixation	0	5	500	0	0	1	495	1	+	-14	0	0	0	0	0	0
2	2023-03-22	18:07:00	18:19:40	18:19:40:520	43	2	Reminder_Objects_CSm	Objects_CSm	0	5	0	0	0	0	5000	1	Object3.jpg	-14	0	0	0	0	0	0
2	2023-03-22	18:07:00	18:19:43	18:19:43:587	43	3	Reminder_Objects_CSm	expectancy_object	0	1500	0	0	78	0	3045	1	When you saw the <b>object</b>,   to what <b>degree (0-100%)</b> did you expect the <b>unpleasant sound to occur</b>?	-16	0	0	0	0	0	0
2	2023-03-22	18:07:00	18:19:46	18:19:46:586	44	1	Reminder_Objects_CSm	fixation	0	5	1500	0	0	1	1495	1	+	-15	0	0	0	0	0	0
2	2023-03-22	18:07:00	18:19:51	18:19:51:604	44	2	Reminder_Objects_CSm	Objects_CSm	0	5	0	0	0	0	5000	2	Object7.jpg	-14	0	0	0	0	0	0
2	2023-03-22	18:07:00	18:19:57	18:19:57:304	44	3	Reminder_Objects_CSm	expectancy_object	0	500	0	0	70	0	5681	1	When you saw the <b>object</b>,   to what <b>degree (0-100%)</b> did you expect the <b>unpleasant sound to occur</b>?	-16	0	0	0	0	0	0
2	2023-03-22	18:07:00	18:19:58	18:19:58:303	45	1	Reminder_Think_CSm	fixation	0	5	500	0	0	1	495	1	+	-14	0	0	0	0	0	0
2	2023-03-22	18:07:00	18:20:03	18:20:03:321	45	2	Reminder_Think_CSm	Think_CSm	0	5	0	0	0	0	5000	1	+	-14	6	Cue15.jpg	-14	6	Target15.jpg	-14
2	2023-03-22	18:07:00	18:20:08	18:20:08:522	45	3	Reminder_Think_CSm	valence	0	5	0	0	50	0	5172	1	I found these images to be...	-16	0	0	0	0	0	0
2	2023-03-22	18:07:00	18:20:12	18:20:12:322	45	4	Reminder_Think_CSm	expectancy	0	500	0	0	24	0	3755	1	When you saw the <b>object-scene</b>,   to what <b>degree (0-100%)</b> did you expect the <b>unpleasant sound to occur</b>?	-12	0	0	0	0	0	0
2	2023-03-22	18:07:00	18:20:13	18:20:13:822	46	1	PracticeItems_NoThink	fixation	0	5	1000	0	0	1	995	1	+	-14	0	0	0	0	0	0
2	2023-03-22	18:07:00	18:20:18	18:20:18:842	46	2	PracticeItems_NoThink	PracticeItems_NoThink	0	5	0	0	0	0	5000	1	+	-13	2	Cue40.jpg	-13	2	Target40.jpg	-13
2	2023-03-22	18:07:00	18:20:22	18:20:22:072	46	3	PracticeItems_NoThink	valence	0	5	0	0	50	0	3174	1	I found these images to be...	-16	0	0	0	0	0	0
2	2023-03-22	18:07:00	18:20:28	18:20:28:456	46	4	PracticeItems_NoThink	expectancy	0	1500	0	0	2	0	6340	1	When you saw the <b>object-scene</b>,   to what <b>degree (0-100%)</b> did you expect the <b>unpleasant sound to occur</b>?	-8	0	0	0	0	0	0
2	2023-03-22	18:07:00	18:20:30	18:20:30:955	47	1	Reminder_Objects_CSm	fixation	0	5	1000	0	0	1	995	1	+	-15	0	0	0	0	0	0
2	2023-03-22	18:07:00	18:20:35	18:20:35:973	47	2	Reminder_Objects_CSm	Objects_CSm	0	5	0	0	0	0	5000	3	Object6.jpg	-14	0	0	0	0	0	0
2	2023-03-22	18:07:00	18:20:40	18:20:40:090	47	3	Reminder_Objects_CSm	expectancy_object	0	1000	0	0	14	0	4096	1	When you saw the <b>object</b>,   to what <b>degree (0-100%)</b> did you expect the <b>unpleasant sound to occur</b>?	-16	0	0	0	0	0	0
2	2023-03-22	18:07:00	18:20:41	18:20:41:589	48	1	Reminder_Think_CSm	fixation	0	5	500	0	0	1	495	1	+	-15	0	0	0	0	0	0
2	2023-03-22	18:07:00	18:20:46	18:20:46:607	48	2	Reminder_Think_CSm	Think_CSm	0	5	0	0	0	0	5000	1	+	-13	3	Cue11.jpg	-13	3	Target11.jpg	-13
2	2023-03-22	18:07:00	18:20:51	18:20:51:041	48	3	Reminder_Think_CSm	valence	0	5	0	0	50	0	4414	1	I found these images to be...	-16	0	0	0	0	0	0
2	2023-03-22	18:07:00	18:20:54	18:20:54:075	48	4	Reminder_Think_CSm	expectancy	0	1000	0	0	22	0	2996	1	When you saw the <b>object-scene</b>,   to what <b>degree (0-100%)</b> did you expect the <b>unpleasant sound to occur</b>?	-12	0	0	0	0	0	0
2	2023-03-22	18:07:00	18:20:56	18:20:56:574	49	1	Reminder_NoThink_CSp	fixation	0	5	1500	0	0	1	1495	1	+	-15	0	0	0	0	0	0
2	2023-03-22	18:07:00	18:21:01	18:21:01:592	49	2	Reminder_NoThink_CSp	NoThink_CSp	0	5	0	0	0	0	5000	1	+	-14	5	Cue22.jpg	-14	5	Target22.jpg	-14
2	2023-03-22	18:07:00	18:21:05	18:21:05:525	49	3	Reminder_NoThink_CSp	valence	0	5	0	0	25	0	3902	1	I found these images to be...	-16	0	0	0	0	0	0
2	2023-03-22	18:07:00	18:21:09	18:21:09:275	49	4	Reminder_NoThink_CSp	expectancy	0	1000	0	0	60	0	3712	1	When you saw the <b>object-scene</b>,   to what <b>degree (0-100%)</b> did you expect the <b>unpleasant sound to occur</b>?	-10	0	0	0	0	0	0
2	2023-03-22	18:07:00	18:26:05	18:26:05:503	2	1	Practice_Think	fixation	0	5	500	0	0	1	495	1	+	0	0	0	0	0	0	0
2	2023-03-22	18:07:00	18:26:06	18:26:06:519	2	2	Practice_Think	Think	0	5	0	0	0	0	1000	1	THINK	-16	0	0	0	0	0	0
2	2023-03-22	18:07:00	18:26:11	18:26:11:536	2	3	Practice_Think	ThinkCue	0	5	0	0	0	1	5000	2	Cue38.jpg	-16	0	0	0	0	0	0
2	2023-03-22	18:07:00	18:26:13	18:26:13:061	2	4	Practice_Think	Intrusion	0	1500	3000	0	0	0	1500	1	How <b>often</b> did you <b>think</b> about the <b>scene</b>?   <center><br><b>NEVER (1)    BRIEFLY (2)   OFTEN (3) </b>	-14	0	0	0	0	0	0
2	2023-03-22	18:07:00	18:26:16	18:26:16:040	3	1	Practice_Think	fixation	0	5	1500	0	0	1	1495	1	+	-9	0	0	0	0	0	0
2	2023-03-22	18:07:00	18:26:17	18:26:17:053	3	2	Practice_Think	Think	0	5	0	0	0	0	1000	1	THINK	-16	0	0	0	0	0	0
2	2023-03-22	18:07:00	18:26:22	18:26:22:070	3	3	Practice_Think	ThinkCue	0	5	0	0	0	1	5000	1	Cue37.jpg	-16	0	0	0	0	0	0
2	2023-03-22	18:07:00	18:26:24	18:26:24:077	3	4	Practice_Think	Intrusion	0	1000	3000	0	0	0	2000	1	How <b>often</b> did you <b>think</b> about the <b>scene</b>?   <center><br><b>NEVER (1)    BRIEFLY (2)   OFTEN (3) </b>	-16	0	0	0	0	0	0
2	2023-03-22	18:07:00	18:26:26	18:26:26:074	4	1	Practice_NoThink	fixation	0	5	1000	0	0	1	995	1	+	-9	0	0	0	0	0	0
2	2023-03-22	18:07:00	18:26:27	18:26:27:087	4	2	Practice_NoThink	NoThink	0	5	0	0	0	0	1000	1	DON'T THINK	-16	0	0	0	0	0	0
2	2023-03-22	18:07:00	18:26:32	18:26:32:104	4	3	Practice_NoThink	NoThinkCue	0	5	0	0	0	1	5000	2	Cue40.jpg	-16	0	0	0	0	0	0
2	2023-03-22	18:07:00	18:26:35	18:26:35:611	4	4	Practice_NoThink	Intrusion	0	500	3000	0	0	0	2500	1	How <b>often</b> did you <b>think</b> about the <b>scene</b>?   <center><br><b>NEVER (1)    BRIEFLY (2)   OFTEN (3) </b>	-16	0	0	0	0	0	0
2	2023-03-22	18:07:00	18:26:37	18:26:37:608	5	1	Practice_NoThink	fixation	0	5	1500	0	0	1	1495	1	+	-9	0	0	0	0	0	0
2	2023-03-22	18:07:00	18:26:38	18:26:38:621	5	2	Practice_NoThink	NoThink	0	5	0	0	0	0	1000	1	DON'T THINK	-16	0	0	0	0	0	0
2	2023-03-22	18:07:00	18:26:43	18:26:43:638	5	3	Practice_NoThink	NoThinkCue	0	5	0	0	0	1	5000	1	Cue39.jpg	-16	0	0	0	0	0	0
2	2023-03-22	18:07:00	18:26:44	18:26:44:828	5	4	Practice_NoThink	Intrusion	0	1500	3000	0	4	1	1173	1	How <b>often</b> did you <b>think</b> about the <b>scene</b>?   <center><br><b>NEVER (1)    BRIEFLY (2)   OFTEN (3) </b>	-16	0	0	0	0	0	0
2	2023-03-22	18:07:00	18:35:33	18:35:33:580	6	1	Practice_Betweenblocks1	Practice_Betweenblocks1	0	5	0	0	57	1	526908	1	<center><br><br><br><br>This is the end of the first practice round. <br><br>There will be 2 more practice rounds.  <br><br> Please await further instruction from the experimenter.	-16	0	0	0	0	0	0
2	2023-03-22	18:07:00	18:35:34	18:35:34:582	7	1	Practice_Think	fixation	0	5	1000	0	0	1	995	1	+	-8	0	0	0	0	0	0
2	2023-03-22	18:07:00	18:35:35	18:35:35:602	7	2	Practice_Think	Think	0	5	0	0	0	0	1000	1	THINK	-7	0	0	0	0	0	0
2	2023-03-22	18:07:00	18:35:40	18:35:40:620	7	3	Practice_Think	ThinkCue	0	5	0	0	0	1	5000	2	Cue38.jpg	-16	0	0	0	0	0	0
2	2023-03-22	18:07:00	18:35:41	18:35:41:235	7	4	Practice_Think	Intrusion	0	500	3000	0	81	1	1599	1	How <b>often</b> did you <b>think</b> about the <b>scene</b>?   <center><br><b>NEVER (1)    BRIEFLY (2)   OFTEN (3) </b>	-16	0	0	0	0	0	0
2	2023-03-22	18:07:00	18:35:43	18:35:43:124	8	1	Practice_NoThink	fixation	0	5	500	0	0	1	495	1	+	-16	0	0	0	0	0	0
2	2023-03-22	18:07:00	18:35:44	18:35:44:137	8	2	Practice_NoThink	NoThink	0	5	0	0	0	0	1000	1	DON'T THINK	-16	0	0	0	0	0	0
2	2023-03-22	18:07:00	18:35:49	18:35:49:153	8	3	Practice_NoThink	NoThinkCue	0	5	0	0	0	1	5000	2	Cue40.jpg	-16	0	0	0	0	0	0
2	2023-03-22	18:07:00	18:35:51	18:35:51:161	8	4	Practice_NoThink	Intrusion	0	1000	3000	0	0	0	2000	1	How <b>often</b> did you <b>think</b> about the <b>scene</b>?   <center><br><b>NEVER (1)    BRIEFLY (2)   OFTEN (3) </b>	-16	0	0	0	0	0	0
2	2023-03-22	18:07:00	18:35:53	18:35:53:658	9	1	Practice_NoThink	fixation	0	5	500	0	0	1	495	1	+	-16	0	0	0	0	0	0
2	2023-03-22	18:07:00	18:35:54	18:35:54:670	9	2	Practice_NoThink	NoThink	0	5	0	0	0	0	1000	1	DON'T THINK	-16	0	0	0	0	0	0
2	2023-03-22	18:07:00	18:35:59	18:35:59:687	9	3	Practice_NoThink	NoThinkCue	0	5	0	0	0	1	5000	1	Cue39.jpg	-16	0	0	0	0	0	0
2	2023-03-22	18:07:00	18:36:01	18:36:01:695	9	4	Practice_NoThink	Intrusion	0	1000	3000	0	0	0	2000	1	How <b>often</b> did you <b>think</b> about the <b>scene</b>?   <center><br><b>NEVER (1)    BRIEFLY (2)   OFTEN (3) </b>	-16	0	0	0	0	0	0
2	2023-03-22	18:07:00	18:36:03	18:36:03:691	10	1	Practice_Think	fixation	0	5	1000	0	0	1	995	1	+	-8	0	0	0	0	0	0
2	2023-03-22	18:07:00	18:36:04	18:36:04:704	10	2	Practice_Think	Think	0	5	0	0	0	0	1000	1	THINK	-16	0	0	0	0	0	0
2	2023-03-22	18:07:00	18:36:09	18:36:09:721	10	3	Practice_Think	ThinkCue	0	5	0	0	0	1	5000	1	Cue37.jpg	-16	0	0	0	0	0	0
2	2023-03-22	18:07:00	18:36:11	18:36:11:172	10	4	Practice_Think	Intrusion	0	500	3000	0	81	1	2433	1	How <b>often</b> did you <b>think</b> about the <b>scene</b>?   <center><br><b>NEVER (1)    BRIEFLY (2)   OFTEN (3) </b>	-16	0	0	0	0	0	0
2	2023-03-22	18:07:00	18:36:50	18:36:50:019	11	1	Practice_Betweenblocks2	Practice_Betweenblocks2	0	5	0	0	57	1	38248	1	<center><br><br><br><br>This is the end of the second practice round. <br><br>There will be 1 more practice round.  <br><br> Please await further instruction from the experimenter.	-8	0	0	0	0	0	0
2	2023-03-22	18:07:00	18:36:51	18:36:51:521	12	1	Practice_NoThink	fixation	0	5	1500	0	0	1	1495	1	+	-9	0	0	0	0	0	0
2	2023-03-22	18:07:00	18:36:53	18:36:53:541	12	2	Practice_NoThink	NoThink	0	5	0	0	0	0	1000	1	DON'T THINK	-16	0	0	0	0	0	0
2	2023-03-22	18:07:00	18:36:58	18:36:58:558	12	3	Practice_NoThink	NoThinkCue	0	5	0	0	0	1	5000	2	Cue40.jpg	-16	0	0	0	0	0	0
2	2023-03-22	18:07:00	18:36:59	18:36:59:065	12	4	Practice_NoThink	Intrusion	0	1500	3000	0	0	0	1500	1	How <b>often</b> did you <b>think</b> about the <b>scene</b>?   <center><br><b>NEVER (1)    BRIEFLY (2)   OFTEN (3) </b>	-16	0	0	0	0	0	0
2	2023-03-22	18:07:00	18:37:02	18:37:02:562	13	1	Practice_Think	fixation	0	5	1000	0	0	1	995	1	+	-16	0	0	0	0	0	0
2	2023-03-22	18:07:00	18:37:03	18:37:03:574	13	2	Practice_Think	Think	0	5	0	0	0	0	1000	1	THINK	-16	0	0	0	0	0	0
2	2023-03-22	18:07:00	18:37:08	18:37:08:591	13	3	Practice_Think	ThinkCue	0	5	0	0	0	1	5000	2	Cue38.jpg	-16	0	0	0	0	0	0
2	2023-03-22	18:07:00	18:37:08	18:37:08:483	13	4	Practice_Think	Intrusion	0	1500	3000	0	81	1	875	1	How <b>often</b> did you <b>think</b> about the <b>scene</b>?   <center><br><b>NEVER (1)    BRIEFLY (2)   OFTEN (3) </b>	-16	0	0	0	0	0	0
2	2023-03-22	18:07:00	18:37:12	18:37:12:095	14	1	Practice_NoThink	fixation	0	5	1500	0	0	1	1495	1	+	-9	0	0	0	0	0	0
2	2023-03-22	18:07:00	18:37:13	18:37:13:109	14	2	Practice_NoThink	NoThink	0	5	0	0	0	0	1000	1	DON'T THINK	-16	0	0	0	0	0	0
2	2023-03-22	18:07:00	18:37:18	18:37:18:125	14	3	Practice_NoThink	NoThinkCue	0	5	0	0	0	1	5000	1	Cue39.jpg	-16	0	0	0	0	0	0
2	2023-03-22	18:07:00	18:37:19	18:37:19:899	14	4	Practice_NoThink	Intrusion	0	500	3000	0	79	1	757	1	How <b>often</b> did you <b>think</b> about the <b>scene</b>?   <center><br><b>NEVER (1)    BRIEFLY (2)   OFTEN (3) </b>	-16	0	0	0	0	0	0
2	2023-03-22	18:07:00	18:37:22	18:37:22:629	15	1	Practice_Think	fixation	0	5	500	0	0	1	495	1	+	-9	0	0	0	0	0	0
2	2023-03-22	18:07:00	18:37:23	18:37:23:642	15	2	Practice_Think	Think	0	5	0	0	0	0	1000	1	THINK	-16	0	0	0	0	0	0
2	2023-03-22	18:07:00	18:37:28	18:37:28:659	15	3	Practice_Think	ThinkCue	0	5	0	0	0	1	5000	1	Cue37.jpg	-16	0	0	0	0	0	0
2	2023-03-22	18:07:00	18:37:30	18:37:30:667	15	4	Practice_Think	Intrusion	0	1000	3000	0	0	0	2000	1	How <b>often</b> did you <b>think</b> about the <b>scene</b>?   <center><br><b>NEVER (1)    BRIEFLY (2)   OFTEN (3) </b>	-16	0	0	0	0	0	0
2	2023-03-22	18:07:00	18:40:43	18:40:43:02	2	1	TNT_NoThink_CSp	fixation	0	5	1000	0	0	1	995	1	+	-9	0	0	0	0	0	0
2	2023-03-22	18:07:00	18:40:44	18:40:44:019	2	2	TNT_NoThink_CSp	NoThink	0	5	0	0	0	0	1000	1	DON'T THINK	-16	0	0	0	0	0	0
2	2023-03-22	18:07:00	18:40:49	18:40:49:035	2	3	TNT_NoThink_CSp	TNT_NoThink_CSp	0	5	0	0	0	0	5000	5	Cue22.jpg	-16	0	0	0	0	0	0
2	2023-03-22	18:07:00	18:40:49	18:40:49:616	2	4	TNT_NoThink_CSp	Intrusion	0	500	3000	0	79	1	563	1	How <b>often</b> did you <b>think</b> about the <b>scene</b>?   <center><br><b>NEVER (1)    BRIEFLY (2)   OFTEN (3) </b>	-16	0	0	0	0	0	0
2	2023-03-22	18:07:00	18:40:53	18:40:53:539	3	1	TNT_Think_CSp	fixation	0	5	1500	0	0	1	1495	1	+	-8	0	0	0	0	0	0
2	2023-03-22	18:07:00	18:40:54	18:40:54:552	3	2	TNT_Think_CSp	Think	0	5	0	0	0	0	1000	1	THINK	-16	0	0	0	0	0	0
2	2023-03-22	18:07:00	18:40:59	18:40:59:569	3	3	TNT_Think_CSp	TNT_Think_CSp	0	5	0	0	0	0	5000	1	Cue5.jpg	-16	0	0	0	0	0	0
2	2023-03-22	18:07:00	18:41:01	18:41:01:077	3	4	TNT_Think_CSp	Intrusion	0	1500	3000	0	0	0	1500	1	How <b>often</b> did you <b>think</b> about the <b>scene</b>?   <center><br><b>NEVER (1)    BRIEFLY (2)   OFTEN (3) </b>	-16	0	0	0	0	0	0
2	2023-03-22	18:07:00	18:41:03	18:41:03:074	4	1	TNT_Think_CSp	fixation	0	5	500	0	0	1	495	1	+	-16	0	0	0	0	0	0
2	2023-03-22	18:07:00	18:41:04	18:41:04:086	4	2	TNT_Think_CSp	Think	0	5	0	0	0	0	1000	1	THINK	-16	0	0	0	0	0	0
2	2023-03-22	18:07:00	18:41:09	18:41:09:103	4	3	TNT_Think_CSp	TNT_Think_CSp	0	5	0	0	0	0	5000	3	Cue36.jpg	-16	0	0	0	0	0	0
2	2023-03-22	18:07:00	18:41:10	18:41:10:320	4	4	TNT_Think_CSp	Intrusion	0	1000	3000	0	81	1	1199	1	How <b>often</b> did you <b>think</b> about the <b>scene</b>?   <center><br><b>NEVER (1)    BRIEFLY (2)   OFTEN (3) </b>	-16	0	0	0	0	0	0
2	2023-03-22	18:07:00	18:41:13	18:41:13:107	5	1	TNT_Object_CSp	fixation	0	5	1000	0	0	1	995	1	+	-9	0	0	0	0	0	0
2	2023-03-22	18:07:00	18:41:14	18:41:14:121	5	2	TNT_Object_CSp	Passive	0	5	0	0	0	0	1000	1	VIEW	-16	0	0	0	0	0	0
2	2023-03-22	18:07:00	18:41:19	18:41:19:137	5	3	TNT_Object_CSp	TNT_Object_CSp	0	1000	0	0	0	0	5000	4	Object5.jpg	-16	0	0	0	0	0	0
2	2023-03-22	18:07:00	18:41:20	18:41:20:637	6	1	TNT_NoThink_CSm	fixation	0	5	500	0	0	1	495	1	+	-9	0	0	0	0	0	0
2	2023-03-22	18:07:00	18:41:21	18:41:21:654	6	2	TNT_NoThink_CSm	NoThink	0	5	0	0	0	0	1000	1	DON'T THINK	-16	0	0	0	0	0	0
2	2023-03-22	18:07:00	18:41:26	18:41:26:671	6	3	TNT_NoThink_CSm	TNT_NoThink_CSm	0	5	0	0	0	0	5000	6	Cue34.jpg	-16	0	0	0	0	0	0
2	2023-03-22	18:07:00	18:41:28	18:41:28:176	6	4	TNT_NoThink_CSm	Intrusion	0	1000	3000	0	81	1	1487	1	How <b>often</b> did you <b>think</b> about the <b>scene</b>?   <center><br><b>NEVER (1)    BRIEFLY (2)   OFTEN (3) </b>	-16	0	0	0	0	0	0
2	2023-03-22	18:07:00	18:41:31	18:41:31:175	7	1	TNT_Object_CSp	fixation	0	5	1500	0	0	1	1495	1	+	-8	0	0	0	0	0	0
2	2023-03-22	18:07:00	18:41:32	18:41:32:188	7	2	TNT_Object_CSp	Passive	0	5	0	0	0	0	1000	1	VIEW	-16	0	0	0	0	0	0
2	2023-03-22	18:07:00	18:41:37	18:41:37:205	7	3	TNT_Object_CSp	TNT_Object_CSp	0	1500	0	0	0	0	5000	1	Object1.jpg	-16	0	0	0	0	0	0
2	2023-03-22	18:07:00	18:41:40	18:41:40:203	8	1	TNT_Think_CSp	fixation	0	5	1500	0	0	1	1495	1	+	-9	0	0	0	0	0	0
2	2023-03-22	18:07:00	18:41:41	18:41:41:222	8	2	TNT_Think_CSp	Think	0	5	0	0	0	0	1000	1	THINK	-16	0	0	0	0	0	0
2	2023-03-22	18:07:00	18:41:46	18:41:46:239	8	3	TNT_Think_CSp	TNT_Think_CSp	0	5	0	0	0	0	5000	4	Cue23.jpg	-16	0	0	0	0	0	0
2	2023-03-22	18:07:00	18:41:47	18:41:47:520	8	4	TNT_Think_CSp	Intrusion	0	1500	3000	0	81	1	1263	1	How <b>often</b> did you <b>think</b> about the <b>scene</b>?   <center><br><b>NEVER (1)    BRIEFLY (2)   OFTEN (3) </b>	-16	0	0	0	0	0	0
2	2023-03-22	18:07:00	18:41:49	18:41:49:743	9	1	TNT_NoThink_CSp	fixation	0	5	500	0	0	1	495	1	+	-9	0	0	0	0	0	0
2	2023-03-22	18:07:00	18:41:50	18:41:50:756	9	2	TNT_NoThink_CSp	NoThink	0	5	0	0	0	0	1000	1	DON'T THINK	-16	0	0	0	0	0	0
2	2023-03-22	18:07:00	18:41:55	18:41:55:773	9	3	TNT_NoThink_CSp	TNT_NoThink_CSp	0	5	0	0	0	0	5000	6	Cue31.jpg	-16	0	0	0	0	0	0
2	2023-03-22	18:07:00	18:41:57	18:41:57:440	9	4	TNT_NoThink_CSp	Intrusion	0	500	3000	0	81	1	1650	1	How <b>often</b> did you <b>think</b> about the <b>scene</b>?   <center><br><b>NEVER (1)    BRIEFLY (2)   OFTEN (3) </b>	-16	0	0	0	0	0	0
2	2023-03-22	18:07:00	18:41:59	18:41:59:777	10	1	TNT_NoThink_CSm	fixation	0	5	1000	0	0	1	995	1	+	-16	0	0	0	0	0	0
2	2023-03-22	18:07:00	18:42:00	18:42:00:790	10	2	TNT_NoThink_CSm	NoThink	0	5	0	0	0	0	1000	1	DON'T THINK	-16	0	0	0	0	0	0
2	2023-03-22	18:07:00	18:42:05	18:42:05:806	10	3	TNT_NoThink_CSm	TNT_NoThink_CSm	0	5	0	0	0	0	5000	3	Cue19.jpg	-16	0	0	0	0	0	0
2	2023-03-22	18:07:00	18:42:06	18:42:06:608	10	4	TNT_NoThink_CSm	Intrusion	0	1000	3000	0	80	1	784	1	How <b>often</b> did you <b>think</b> about the <b>scene</b>?   <center><br><b>NEVER (1)    BRIEFLY (2)   OFTEN (3) </b>	-16	0	0	0	0	0	0
2	2023-03-22	18:07:00	18:42:10	18:42:10:310	11	1	TNT_NoThink_CSm	fixation	0	5	1500	0	0	1	1495	1	+	-4	0	0	0	0	0	0
2	2023-03-22	18:07:00	18:42:11	18:42:11:324	11	2	TNT_NoThink_CSm	NoThink	0	5	0	0	0	0	1000	1	DON'T THINK	-16	0	0	0	0	0	0
2	2023-03-22	18:07:00	18:42:16	18:42:16:341	11	3	TNT_NoThink_CSm	TNT_NoThink_CSm	0	5	0	0	0	0	5000	4	Cue14.jpg	-16	0	0	0	0	0	0
2	2023-03-22	18:07:00	18:42:17	18:42:17:168	11	4	TNT_NoThink_CSm	Intrusion	0	1500	3000	0	80	1	810	1	How <b>often</b> did you <b>think</b> about the <b>scene</b>?   <center><br><b>NEVER (1)    BRIEFLY (2)   OFTEN (3) </b>	-16	0	0	0	0	0	0
2	2023-03-22	18:07:00	18:42:20	18:42:20:345	12	1	TNT_Object_CSm	fixation	0	5	1000	0	0	1	995	1	+	-16	0	0	0	0	0	0
2	2023-03-22	18:07:00	18:42:21	18:42:21:358	12	2	TNT_Object_CSm	Passive	0	5	0	0	0	0	1000	1	VIEW	-16	0	0	0	0	0	0
2	2023-03-22	18:07:00	18:42:26	18:42:26:375	12	3	TNT_Object_CSm	TNT_Object_CSm	0	1500	0	0	0	0	5000	1	Object3.jpg	-16	0	0	0	0	0	0
2	2023-03-22	18:07:00	18:42:28	18:42:28:374	13	1	TNT_NoThink_CSp	fixation	0	5	500	0	0	1	495	1	+	-8	0	0	0	0	0	0
2	2023-03-22	18:07:00	18:42:29	18:42:29:392	13	2	TNT_NoThink_CSp	NoThink	0	5	0	0	0	0	1000	1	DON'T THINK	-16	0	0	0	0	0	0
2	2023-03-22	18:07:00	18:42:34	18:42:34:408	13	3	TNT_NoThink_CSp	TNT_NoThink_CSp	0	5	0	0	0	0	5000	1	Cue29.jpg	-16	0	0	0	0	0	0
2	2023-03-22	18:07:00	18:42:35	18:42:35:600	13	4	TNT_NoThink_CSp	Intrusion	0	500	3000	0	80	1	1174	1	How <b>often</b> did you <b>think</b> about the <b>scene</b>?   <center><br><b>NEVER (1)    BRIEFLY (2)   OFTEN (3) </b>	-16	0	0	0	0	0	0
2	2023-03-22	18:07:00	18:42:39	18:42:39:913	14	1	TNT_Think_CSm	fixation	0	5	1500	0	0	1	1495	1	+	-16	0	0	0	0	0	0
2	2023-03-22	18:07:00	18:42:40	18:42:40:925	14	2	TNT_Think_CSm	Think	0	5	0	0	0	0	1000	1	THINK	-16	0	0	0	0	0	0
2	2023-03-22	18:07:00	18:42:45	18:42:45:942	14	3	TNT_Think_CSm	TNT_Think_CSm	0	5	0	0	0	0	5000	5	Cue13.jpg	-16	0	0	0	0	0	0
2	2023-03-22	18:07:00	18:42:46	18:42:46:368	14	4	TNT_Think_CSm	Intrusion	0	1500	3000	0	81	1	1408	1	How <b>often</b> did you <b>think</b> about the <b>scene</b>?   <center><br><b>NEVER (1)    BRIEFLY (2)   OFTEN (3) </b>	-16	0	0	0	0	0	0
2	2023-03-22	18:07:00	18:42:48	18:42:48:446	15	1	TNT_NoThink_CSp	fixation	0	5	500	0	0	1	495	1	+	-8	0	0	0	0	0	0
2	2023-03-22	18:07:00	18:42:49	18:42:49:460	15	2	TNT_NoThink_CSp	NoThink	0	5	0	0	0	0	1000	1	DON'T THINK	-16	0	0	0	0	0	0
2	2023-03-22	18:07:00	18:42:54	18:42:54:476	15	3	TNT_NoThink_CSp	TNT_NoThink_CSp	0	5	0	0	0	0	5000	3	Cue8.jpg	-16	0	0	0	0	0	0
2	2023-03-22	18:07:00	18:42:55	18:42:55:104	15	4	TNT_NoThink_CSp	Intrusion	0	1000	3000	0	80	1	610	1	How <b>often</b> did you <b>think</b> about the <b>scene</b>?   <center><br><b>NEVER (1)    BRIEFLY (2)   OFTEN (3) </b>	-16	0	0	0	0	0	0
2	2023-03-22	18:07:00	18:42:58	18:42:58:480	16	1	TNT_Object_CSm	fixation	0	5	1000	0	0	1	995	1	+	-9	0	0	0	0	0	0
2	2023-03-22	18:07:00	18:42:59	18:42:59:493	16	2	TNT_Object_CSm	Passive	0	5	0	0	0	0	1000	1	VIEW	-16	0	0	0	0	0	0
2	2023-03-22	18:07:00	18:43:04	18:43:04:510	16	3	TNT_Object_CSm	TNT_Object_CSm	0	500	0	0	0	0	5000	2	Object7.jpg	-16	0	0	0	0	0	0
2	2023-03-22	18:07:00	18:43:06	18:43:06:509	17	1	TNT_Think_CSm	fixation	0	5	1500	0	0	1	1495	1	+	-8	0	0	0	0	0	0
2	2023-03-22	18:07:00	18:43:07	18:43:07:527	17	2	TNT_Think_CSm	Think	0	5	0	0	0	0	1000	1	THINK	-16	0	0	0	0	0	0
2	2023-03-22	18:07:00	18:43:12	18:43:12:544	17	3	TNT_Think_CSm	TNT_Think_CSm	0	5	0	0	0	0	5000	4	Cue7.jpg	-16	0	0	0	0	0	0
2	2023-03-22	18:07:00	18:43:13	18:43:13:744	17	4	TNT_Think_CSm	Intrusion	0	500	3000	0	81	1	1182	1	How <b>often</b> did you <b>think</b> about the <b>scene</b>?   <center><br><b>NEVER (1)    BRIEFLY (2)   OFTEN (3) </b>	-16	0	0	0	0	0	0
2	2023-03-22	18:07:00	18:43:16	18:43:16:047	18	1	TNT_NoThink_CSm	fixation	0	5	500	0	0	1	495	1	+	-9	0	0	0	0	0	0
2	2023-03-22	18:07:00	18:43:17	18:43:17:061	18	2	TNT_NoThink_CSm	NoThink	0	5	0	0	0	0	1000	1	DON'T THINK	-16	0	0	0	0	0	0
2	2023-03-22	18:07:00	18:43:22	18:43:22:078	18	3	TNT_NoThink_CSm	TNT_NoThink_CSm	0	5	0	0	0	0	5000	1	Cue25.jpg	-16	0	0	0	0	0	0
2	2023-03-22	18:07:00	18:43:22	18:43:22:496	18	4	TNT_NoThink_CSm	Intrusion	0	1500	3000	0	79	1	401	1	How <b>often</b> did you <b>think</b> about the <b>scene</b>?   <center><br><b>NEVER (1)    BRIEFLY (2)   OFTEN (3) </b>	-16	0	0	0	0	0	0
2	2023-03-22	18:07:00	18:43:26	18:43:26:082	19	1	TNT_Object_CSm	fixation	0	5	1000	0	0	1	995	1	+	-8	0	0	0	0	0	0
2	2023-03-22	18:07:00	18:43:27	18:43:27:095	19	2	TNT_Object_CSm	Passive	0	5	0	0	0	0	1000	1	VIEW	-16	0	0	0	0	0	0
2	2023-03-22	18:07:00	18:43:32	18:43:32:111	19	3	TNT_Object_CSm	TNT_Object_CSm	0	1000	0	0	0	0	5000	4	Object2.jpg	-16	0	0	0	0	0	0
2	2023-03-22	18:07:00	18:43:33	18:43:33:611	20	1	TNT_Think_CSp	fixation	0	5	500	0	0	1	495	1	+	-9	0	0	0	0	0	0
2	2023-03-22	18:07:00	18:43:34	18:43:34:629	20	2	TNT_Think_CSp	Think	0	5	0	0	0	0	1000	1	THINK	-16	0	0	0	0	0	0
2	2023-03-22	18:07:00	18:43:39	18:43:39:645	20	3	TNT_Think_CSp	TNT_Think_CSp	0	5	0	0	0	0	5000	6	Cue12.jpg	-16	0	0	0	0	0	0
2	2023-03-22	18:07:00	18:43:41	18:43:41:024	20	4	TNT_Think_CSp	Intrusion	0	500	3000	0	79	1	1361	1	How <b>often</b> did you <b>think</b> about the <b>scene</b>?   <center><br><b>NEVER (1)    BRIEFLY (2)   OFTEN (3) </b>	-16	0	0	0	0	0	0
2	2023-03-22	18:07:00	18:43:44	18:43:44:149	21	1	TNT_Think_CSp	fixation	0	5	1500	0	0	1	1495	1	+	-8	0	0	0	0	0	0
2	2023-03-22	18:07:00	18:43:45	18:43:45:162	21	2	TNT_Think_CSp	Think	0	5	0	0	0	0	1000	1	THINK	-16	0	0	0	0	0	0
2	2023-03-22	18:07:00	18:43:50	18:43:50:179	21	3	TNT_Think_CSp	TNT_Think_CSp	0	5	0	0	0	0	5000	5	Cue9.jpg	-16	0	0	0	0	0	0
2	2023-03-22	18:07:00	18:43:51	18:43:51:424	21	4	TNT_Think_CSp	Intrusion	0	1000	3000	0	81	1	1227	1	How <b>often</b> did you <b>think</b> about the <b>scene</b>?   <center><br><b>NEVER (1)    BRIEFLY (2)   OFTEN (3) </b>	-16	0	0	0	0	0	0
2	2023-03-22	18:07:00	18:43:54	18:43:54:184	22	1	TNT_Think_CSm	fixation	0	5	1000	0	0	1	995	1	+	-16	0	0	0	0	0	0
2	2023-03-22	18:07:00	18:43:55	18:43:55:197	22	2	TNT_Think_CSm	Think	0	5	0	0	0	0	1000	1	THINK	-16	0	0	0	0	0	0
2	2023-03-22	18:07:00	18:44:00	18:44:00:213	22	3	TNT_Think_CSm	TNT_Think_CSm	0	5	0	0	0	0	5000	6	Cue15.jpg	-16	0	0	0	0	0	0
2	2023-03-22	18:07:00	18:44:01	18:44:01:721	22	4	TNT_Think_CSm	Intrusion	0	1500	3000	0	0	0	1500	1	How <b>often</b> did you <b>think</b> about the <b>scene</b>?   <center><br><b>NEVER (1)    BRIEFLY (2)   OFTEN (3) </b>	-16	0	0	0	0	0	0
2	2023-03-22	18:07:00	18:44:04	18:44:04:217	23	1	TNT_Object_CSp	fixation	0	5	1000	0	0	1	995	1	+	-9	0	0	0	0	0	0
2	2023-03-22	18:07:00	18:44:05	18:44:05:231	23	2	TNT_Object_CSp	Passive	0	5	0	0	0	0	1000	1	VIEW	-16	0	0	0	0	0	0
2	2023-03-22	18:07:00	18:44:10	18:44:10:247	23	3	TNT_Object_CSp	TNT_Object_CSp	0	500	0	0	0	0	5000	2	Object4.jpg	-16	0	0	0	0	0	0
2	2023-03-22	18:07:00	18:44:11	18:44:11:247	24	1	TNT_Object_CSp	fixation	0	5	500	0	0	1	495	1	+	-8	0	0	0	0	0	0
2	2023-03-22	18:07:00	18:44:12	18:44:12:264	24	2	TNT_Object_CSp	Passive	0	5	0	0	0	0	1000	1	VIEW	-16	0	0	0	0	0	0
2	2023-03-22	18:07:00	18:44:17	18:44:17:281	24	3	TNT_Object_CSp	TNT_Object_CSp	0	1500	0	0	0	0	5000	3	Object8.jpg	-16	0	0	0	0	0	0
2	2023-03-22	18:07:00	18:44:20	18:44:20:280	25	1	TNT_Think_CSp	fixation	0	5	1500	0	0	1	1495	1	+	-8	0	0	0	0	0	0
2	2023-03-22	18:07:00	18:44:21	18:44:21:298	25	2	TNT_Think_CSp	Think	0	5	0	0	0	0	1000	1	THINK	-16	0	0	0	0	0	0
2	2023-03-22	18:07:00	18:44:26	18:44:26:315	25	3	TNT_Think_CSp	TNT_Think_CSp	0	5	0	0	0	0	5000	2	Cue4.jpg	-16	0	0	0	0	0	0
2	2023-03-22	18:07:00	18:44:27	18:44:27:088	25	4	TNT_Think_CSp	Intrusion	0	1000	3000	0	80	1	755	1	How <b>often</b> did you <b>think</b> about the <b>scene</b>?   <center><br><b>NEVER (1)    BRIEFLY (2)   OFTEN (3) </b>	-16	0	0	0	0	0	0
2	2023-03-22	18:07:00	18:44:29	18:44:29:819	26	1	TNT_Object_CSm	fixation	0	5	500	0	0	1	495	1	+	-16	0	0	0	0	0	0
2	2023-03-22	18:07:00	18:44:30	18:44:30:832	26	2	TNT_Object_CSm	Passive	0	5	0	0	0	0	1000	1	VIEW	-16	0	0	0	0	0	0
2	2023-03-22	18:07:00	18:44:35	18:44:35:849	26	3	TNT_Object_CSm	TNT_Object_CSm	0	1500	0	0	0	0	5000	3	Object6.jpg	-16	0	0	0	0	0	0
2	2023-03-22	18:07:00	18:44:38	18:44:38:348	27	1	TNT_Think_CSm	fixation	0	5	1000	0	0	1	995	1	+	-9	0	0	0	0	0	0
2	2023-03-22	18:07:00	18:44:39	18:44:39:366	27	2	TNT_Think_CSm	Think	0	5	0	0	0	0	1000	1	THINK	-16	0	0	0	0	0	0
2	2023-03-22	18:07:00	18:44:44	18:44:44:383	27	3	TNT_Think_CSm	TNT_Think_CSm	0	5	0	0	0	0	5000	3	Cue11.jpg	-16	0	0	0	0	0	0
2	2023-03-22	18:07:00	18:44:45	18:44:45:536	27	4	TNT_Think_CSm	Intrusion	0	500	3000	0	81	1	1136	1	How <b>often</b> did you <b>think</b> about the <b>scene</b>?   <center><br><b>NEVER (1)    BRIEFLY (2)   OFTEN (3) </b>	-16	0	0	0	0	0	0
2	2023-03-22	18:07:00	18:44:48	18:44:48:887	28	1	TNT_NoThink_CSm	fixation	0	5	1500	0	0	1	1495	1	+	-16	0	0	0	0	0	0
2	2023-03-22	18:07:00	18:44:49	18:44:49:900	28	2	TNT_NoThink_CSm	NoThink	0	5	0	0	0	0	1000	1	DON'T THINK	-16	0	0	0	0	0	0
2	2023-03-22	18:07:00	18:44:55	18:44:55:916	28	3	TNT_NoThink_CSm	TNT_NoThink_CSm	0	5	0	0	0	0	5000	2	Cue30.jpg	-16	0	0	0	0	0	0
2	2023-03-22	18:07:00	18:44:55	18:44:55:328	28	4	TNT_NoThink_CSm	Intrusion	0	1000	3000	0	80	1	394	1	How <b>often</b> did you <b>think</b> about the <b>scene</b>?   <center><br><b>NEVER (1)    BRIEFLY (2)   OFTEN (3) </b>	-16	0	0	0	0	0	0
2	2023-03-22	18:07:00	18:44:59	18:44:59:920	29	1	TNT_NoThink_CSm	fixation	0	5	1000	0	0	1	995	1	+	-8	0	0	0	0	0	0
2	2023-03-22	18:07:00	18:45:00	18:45:00:934	29	2	TNT_NoThink_CSm	NoThink	0	5	0	0	0	0	1000	1	DON'T THINK	-16	0	0	0	0	0	0
2	2023-03-22	18:07:00	18:45:05	18:45:05:951	29	3	TNT_NoThink_CSm	TNT_NoThink_CSm	0	5	0	0	0	0	5000	5	Cue6.jpg	-16	0	0	0	0	0	0
2	2023-03-22	18:07:00	18:45:05	18:45:05:744	29	4	TNT_NoThink_CSm	Intrusion	0	1500	3000	0	80	1	776	1	How <b>often</b> did you <b>think</b> about the <b>scene</b>?   <center><br><b>NEVER (1)    BRIEFLY (2)   OFTEN (3) </b>	-16	0	0	0	0	0	0
2	2023-03-22	18:07:00	18:45:08	18:45:08:455	30	1	TNT_NoThink_CSp	fixation	0	5	500	0	0	1	495	1	+	-16	0	0	0	0	0	0
2	2023-03-22	18:07:00	18:45:09	18:45:09:468	30	2	TNT_NoThink_CSp	NoThink	0	5	0	0	0	0	1000	1	DON'T THINK	-16	0	0	0	0	0	0
2	2023-03-22	18:07:00	18:45:14	18:45:14:484	30	3	TNT_NoThink_CSp	TNT_NoThink_CSp	0	5	0	0	0	0	5000	2	Cue24.jpg	-16	0	0	0	0	0	0
2	2023-03-22	18:07:00	18:45:16	18:45:16:952	30	4	TNT_NoThink_CSp	Intrusion	0	500	3000	0	79	1	1450	1	How <b>often</b> did you <b>think</b> about the <b>scene</b>?   <center><br><b>NEVER (1)    BRIEFLY (2)   OFTEN (3) </b>	-16	0	0	0	0	0	0
2	2023-03-22	18:07:00	18:45:19	18:45:19:988	31	1	TNT_NoThink_CSp	fixation	0	5	1500	0	0	1	1495	1	+	1	0	0	0	0	0	0
2	2023-03-22	18:07:00	18:45:20	18:45:20:02	31	2	TNT_NoThink_CSp	NoThink	0	5	0	0	0	0	1000	1	DON'T THINK	-16	0	0	0	0	0	0
2	2023-03-22	18:07:00	18:45:25	18:45:25:018	31	3	TNT_NoThink_CSp	TNT_NoThink_CSp	0	5	0	0	0	0	5000	4	Cue32.jpg	-16	0	0	0	0	0	0
2	2023-03-22	18:07:00	18:45:26	18:45:26:526	31	4	TNT_NoThink_CSp	Intrusion	0	1500	3000	0	0	0	1500	1	How <b>often</b> did you <b>think</b> about the <b>scene</b>?   <center><br><b>NEVER (1)    BRIEFLY (2)   OFTEN (3) </b>	-16	0	0	0	0	0	0
2	2023-03-22	18:07:00	18:45:29	18:45:29:022	32	1	TNT_Think_CSm	fixation	0	5	1000	0	0	1	995	1	+	-9	0	0	0	0	0	0
2	2023-03-22	18:07:00	18:45:30	18:45:30:036	32	2	TNT_Think_CSm	Think	0	5	0	0	0	0	1000	1	THINK	-16	0	0	0	0	0	0
2	2023-03-22	18:07:00	18:45:35	18:45:35:052	32	3	TNT_Think_CSm	TNT_Think_CSm	0	5	0	0	0	0	5000	2	Cue33.jpg	-16	0	0	0	0	0	0
2	2023-03-22	18:07:00	18:45:35	18:45:35:664	32	4	TNT_Think_CSm	Intrusion	0	500	3000	0	80	1	594	1	How <b>often</b> did you <b>think</b> about the <b>scene</b>?   <center><br><b>NEVER (1)    BRIEFLY (2)   OFTEN (3) </b>	-16	0	0	0	0	0	0
2	2023-03-22	18:07:00	18:45:39	18:45:39:556	33	1	TNT_Think_CSm	fixation	0	5	1500	0	0	1	1495	1	+	-9	0	0	0	0	0	0
2	2023-03-22	18:07:00	18:45:40	18:45:40:569	33	2	TNT_Think_CSm	Think	0	5	0	0	0	0	1000	1	THINK	-16	0	0	0	0	0	0
2	2023-03-22	18:07:00	18:45:45	18:45:45:586	33	3	TNT_Think_CSm	TNT_Think_CSm	0	5	0	0	0	0	5000	1	Cue21.jpg	-16	0	0	0	0	0	0
2	2023-03-22	18:07:00	18:45:47	18:45:47:594	33	4	TNT_Think_CSm	Intrusion	0	1000	3000	0	0	0	2000	1	How <b>often</b> did you <b>think</b> about the <b>scene</b>?   <center><br><b>NEVER (1)    BRIEFLY (2)   OFTEN (3) </b>	-16	0	0	0	0	0	0
2	2023-03-22	18:07:00	18:45:49	18:45:49:090	34	1	TNT_Think_CSp	fixation	0	5	500	0	0	1	495	1	+	-8	0	0	0	0	0	0
2	2023-03-22	18:07:00	18:45:50	18:45:50:103	34	2	TNT_Think_CSp	Think	0	5	0	0	0	0	1000	1	THINK	-16	0	0	0	0	0	0
2	2023-03-22	18:07:00	18:45:55	18:45:55:120	34	3	TNT_Think_CSp	TNT_Think_CSp	0	5	0	0	0	0	5000	1	Cue5.jpg	-16	0	0	0	0	0	0
2	2023-03-22	18:07:00	18:45:55	18:45:55:680	34	4	TNT_Think_CSp	Intrusion	0	1500	3000	0	79	1	542	1	How <b>often</b> did you <b>think</b> about the <b>scene</b>?   <center><br><b>NEVER (1)    BRIEFLY (2)   OFTEN (3) </b>	-16	0	0	0	0	0	0
2	2023-03-22	18:07:00	18:45:58	18:45:58:624	35	1	TNT_Think_CSp	fixation	0	5	500	0	0	1	495	1	+	-8	0	0	0	0	0	0
2	2023-03-22	18:07:00	18:45:59	18:45:59:637	35	2	TNT_Think_CSp	Think	0	5	0	0	0	0	1000	1	THINK	-16	0	0	0	0	0	0
2	2023-03-22	18:07:00	18:46:04	18:46:04:654	35	3	TNT_Think_CSp	TNT_Think_CSp	0	5	0	0	0	0	5000	2	Cue4.jpg	-16	0	0	0	0	0	0
2	2023-03-22	18:07:00	18:46:05	18:46:05:504	35	4	TNT_Think_CSp	Intrusion	0	500	3000	0	81	1	832	1	How <b>often</b> did you <b>think</b> about the <b>scene</b>?   <center><br><b>NEVER (1)    BRIEFLY (2)   OFTEN (3) </b>	-16	0	0	0	0	0	0
2	2023-03-22	18:07:00	18:46:09	18:46:09:158	36	1	TNT_Object_CSp	fixation	0	5	1500	0	0	1	1495	1	+	-16	0	0	0	0	0	0
2	2023-03-22	18:07:00	18:46:10	18:46:10:171	36	2	TNT_Object_CSp	Passive	0	5	0	0	0	0	1000	1	VIEW	-16	0	0	0	0	0	0
2	2023-03-22	18:07:00	18:46:15	18:46:15:188	36	3	TNT_Object_CSp	TNT_Object_CSp	0	1000	0	0	0	0	5000	1	Object1.jpg	-16	0	0	0	0	0	0
2	2023-03-22	18:07:00	18:46:17	18:46:17:186	37	1	TNT_Object_CSp	fixation	0	5	1000	0	0	1	995	1	+	-9	0	0	0	0	0	0
2	2023-03-22	18:07:00	18:46:18	18:46:18:205	37	2	TNT_Object_CSp	Passive	0	5	0	0	0	0	1000	1	VIEW	-16	0	0	0	0	0	0
2	2023-03-22	18:07:00	18:46:23	18:46:23:222	37	3	TNT_Object_CSp	TNT_Object_CSp	0	500	0	0	0	0	5000	3	Object8.jpg	-16	0	0	0	0	0	0
2	2023-03-22	18:07:00	18:46:24	18:46:24:721	38	1	TNT_Think_CSm	fixation	0	5	1000	0	0	1	995	1	+	-9	0	0	0	0	0	0
2	2023-03-22	18:07:00	18:46:25	18:46:25:738	38	2	TNT_Think_CSm	Think	0	5	0	0	0	0	1000	1	THINK	-16	0	0	0	0	0	0
2	2023-03-22	18:07:00	18:46:30	18:46:30:756	38	3	TNT_Think_CSm	TNT_Think_CSm	0	5	0	0	0	0	5000	5	Cue13.jpg	-16	0	0	0	0	0	0
2	2023-03-22	18:07:00	18:46:32	18:46:32:016	38	4	TNT_Think_CSm	Intrusion	0	1000	3000	0	81	1	1243	1	How <b>often</b> did you <b>think</b> about the <b>scene</b>?   <center><br><b>NEVER (1)    BRIEFLY (2)   OFTEN (3) </b>	-16	0	0	0	0	0	0
2	2023-03-22	18:07:00	18:46:35	18:46:35:260	39	1	TNT_Object_CSm	fixation	0	5	1500	0	0	1	1495	1	+	-16	0	0	0	0	0	0
2	2023-03-22	18:07:00	18:46:36	18:46:36:272	39	2	TNT_Object_CSm	Passive	0	5	0	0	0	0	1000	1	VIEW	-16	0	0	0	0	0	0
2	2023-03-22	18:07:00	18:46:41	18:46:41:289	39	3	TNT_Object_CSm	TNT_Object_CSm	0	500	0	0	0	0	5000	4	Object2.jpg	-16	0	0	0	0	0	0
2	2023-03-22	18:07:00	18:46:42	18:46:42:289	40	1	TNT_Object_CSm	fixation	0	5	500	0	0	1	495	1	+	-5	0	0	0	0	0	0
2	2023-03-22	18:07:00	18:46:43	18:46:43:306	40	2	TNT_Object_CSm	Passive	0	5	0	0	0	0	1000	1	VIEW	-16	0	0	0	0	0	0
2	2023-03-22	18:07:00	18:46:48	18:46:48:323	40	3	TNT_Object_CSm	TNT_Object_CSm	0	1000	0	0	0	0	5000	2	Object7.jpg	-16	0	0	0	0	0	0
2	2023-03-22	18:07:00	18:46:50	18:46:50:323	41	1	TNT_NoThink_CSm	fixation	0	5	1000	0	0	1	995	1	+	-8	0	0	0	0	0	0
2	2023-03-22	18:07:00	18:46:51	18:46:51:340	41	2	TNT_NoThink_CSm	NoThink	0	5	0	0	0	0	1000	1	DON'T THINK	-16	0	0	0	0	0	0
2	2023-03-22	18:07:00	18:46:56	18:46:56:357	41	3	TNT_NoThink_CSm	TNT_NoThink_CSm	0	5	0	0	0	0	5000	6	Cue34.jpg	-16	0	0	0	0	0	0
2	2023-03-22	18:07:00	18:46:57	18:46:57:136	41	4	TNT_NoThink_CSm	Intrusion	0	500	3000	0	81	1	761	1	How <b>often</b> did you <b>think</b> about the <b>scene</b>?   <center><br><b>NEVER (1)    BRIEFLY (2)   OFTEN (3) </b>	-16	0	0	0	0	0	0
2	2023-03-22	18:07:00	18:47:00	18:47:00:861	42	1	TNT_Object_CSp	fixation	0	5	1500	0	0	1	1495	1	+	-8	0	0	0	0	0	0
2	2023-03-22	18:07:00	18:47:01	18:47:01:874	42	2	TNT_Object_CSp	Passive	0	5	0	0	0	0	1000	1	VIEW	-16	0	0	0	0	0	0
2	2023-03-22	18:07:00	18:47:06	18:47:06:891	42	3	TNT_Object_CSp	TNT_Object_CSp	0	1000	0	0	0	0	5000	4	Object5.jpg	-16	0	0	0	0	0	0
2	2023-03-22	18:07:00	18:47:08	18:47:08:389	43	1	TNT_Think_CSm	fixation	0	5	500	0	0	1	495	1	+	-9	0	0	0	0	0	0
2	2023-03-22	18:07:00	18:47:09	18:47:09:408	43	2	TNT_Think_CSm	Think	0	5	0	0	0	0	1000	1	THINK	-16	0	0	0	0	0	0
2	2023-03-22	18:07:00	18:47:14	18:47:14:425	43	3	TNT_Think_CSm	TNT_Think_CSm	0	5	0	0	0	0	5000	4	Cue7.jpg	-16	0	0	0	0	0	0
2	2023-03-22	18:07:00	18:47:16	18:47:16:919	43	4	TNT_Think_CSm	Intrusion	0	1000	3000	0	81	1	1477	1	How <b>often</b> did you <b>think</b> about the <b>scene</b>?   <center><br><b>NEVER (1)    BRIEFLY (2)   OFTEN (3) </b>	-16	0	0	0	0	0	0
2	2023-03-22	18:07:00	18:47:18	18:47:18:429	44	1	TNT_NoThink_CSm	fixation	0	5	1000	0	0	1	995	1	+	-16	0	0	0	0	0	0
2	2023-03-22	18:07:00	18:47:19	18:47:19:442	44	2	TNT_NoThink_CSm	NoThink	0	5	0	0	0	0	1000	1	DON'T THINK	-16	0	0	0	0	0	0
2	2023-03-22	18:07:00	18:47:24	18:47:24:459	44	3	TNT_NoThink_CSm	TNT_NoThink_CSm	0	5	0	0	0	0	5000	5	Cue6.jpg	-16	0	0	0	0	0	0
2	2023-03-22	18:07:00	18:47:25	18:47:25:976	44	4	TNT_NoThink_CSm	Intrusion	0	1500	3000	0	79	1	500	1	How <b>often</b> did you <b>think</b> about the <b>scene</b>?   <center><br><b>NEVER (1)    BRIEFLY (2)   OFTEN (3) </b>	-16	0	0	0	0	0	0
2	2023-03-22	18:07:00	18:47:29	18:47:29:963	45	1	TNT_NoThink_CSm	fixation	0	5	1500	0	0	1	1495	1	+	-16	0	0	0	0	0	0
2	2023-03-22	18:07:00	18:47:30	18:47:30:976	45	2	TNT_NoThink_CSm	NoThink	0	5	0	0	0	0	1000	1	DON'T THINK	-16	0	0	0	0	0	0
2	2023-03-22	18:07:00	18:47:35	18:47:35:993	45	3	TNT_NoThink_CSm	TNT_NoThink_CSm	0	5	0	0	0	0	5000	1	Cue25.jpg	-16	0	0	0	0	0	0
2	2023-03-22	18:07:00	18:47:35	18:47:35:344	45	4	TNT_NoThink_CSm	Intrusion	0	1500	3000	0	79	1	334	1	How <b>often</b> did you <b>think</b> about the <b>scene</b>?   <center><br><b>NEVER (1)    BRIEFLY (2)   OFTEN (3) </b>	-16	0	0	0	0	0	0
2	2023-03-22	18:07:00	18:47:38	18:47:38:497	46	1	TNT_Think_CSp	fixation	0	5	500	0	0	1	495	1	+	-16	0	0	0	0	0	0
2	2023-03-22	18:07:00	18:47:39	18:47:39:509	46	2	TNT_Think_CSp	Think	0	5	0	0	0	0	1000	1	THINK	-16	0	0	0	0	0	0
2	2023-03-22	18:07:00	18:47:44	18:47:44:527	46	3	TNT_Think_CSp	TNT_Think_CSp	0	5	0	0	0	0	5000	4	Cue23.jpg	-16	0	0	0	0	0	0
2	2023-03-22	18:07:00	18:47:45	18:47:45:744	46	4	TNT_Think_CSp	Intrusion	0	1000	3000	0	81	1	1200	1	How <b>often</b> did you <b>think</b> about the <b>scene</b>?   <center><br><b>NEVER (1)    BRIEFLY (2)   OFTEN (3) </b>	-16	0	0	0	0	0	0
2	2023-03-22	18:07:00	18:47:48	18:47:48:531	47	1	TNT_Think_CSm	fixation	0	5	1000	0	0	1	995	1	+	-16	0	0	0	0	0	0
2	2023-03-22	18:07:00	18:47:49	18:47:49:544	47	2	TNT_Think_CSm	Think	0	5	0	0	0	0	1000	1	THINK	-16	0	0	0	0	0	0
2	2023-03-22	18:07:00	18:47:54	18:47:54:561	47	3	TNT_Think_CSm	TNT_Think_CSm	0	5	0	0	0	0	5000	2	Cue33.jpg	-16	0	0	0	0	0	0
2	2023-03-22	18:07:00	18:47:56	18:47:56:112	47	4	TNT_Think_CSm	Intrusion	0	500	3000	0	81	1	1534	1	How <b>often</b> did you <b>think</b> about the <b>scene</b>?   <center><br><b>NEVER (1)    BRIEFLY (2)   OFTEN (3) </b>	-16	0	0	0	0	0	0
2	2023-03-22	18:07:00	18:47:58	18:47:58:065	48	1	TNT_Think_CSp	fixation	0	5	500	0	0	1	495	1	+	-16	0	0	0	0	0	0
2	2023-03-22	18:07:00	18:47:59	18:47:59:077	48	2	TNT_Think_CSp	Think	0	5	0	0	0	0	1000	1	THINK	-16	0	0	0	0	0	0
2	2023-03-22	18:07:00	18:48:04	18:48:04:095	48	3	TNT_Think_CSp	TNT_Think_CSp	0	5	0	0	0	0	5000	5	Cue9.jpg	-16	0	0	0	0	0	0
2	2023-03-22	18:07:00	18:48:04	18:48:04:816	48	4	TNT_Think_CSp	Intrusion	0	1500	3000	0	81	1	704	1	How <b>often</b> did you <b>think</b> about the <b>scene</b>?   <center><br><b>NEVER (1)    BRIEFLY (2)   OFTEN (3) </b>	-16	0	0	0	0	0	0
2	2023-03-22	18:07:00	18:48:08	18:48:08:599	49	1	TNT_Object_CSm	fixation	0	5	1500	0	0	1	1495	1	+	-16	0	0	0	0	0	0
2	2023-03-22	18:07:00	18:48:09	18:48:09:611	49	2	TNT_Object_CSm	Passive	0	5	0	0	0	0	1000	1	VIEW	-16	0	0	0	0	0	0
2	2023-03-22	18:07:00	18:48:14	18:48:14:628	49	3	TNT_Object_CSm	TNT_Object_CSm	0	1500	0	0	0	0	5000	1	Object3.jpg	-16	0	0	0	0	0	0
2	2023-03-22	18:07:00	18:48:17	18:48:17:628	50	1	TNT_NoThink_CSp	fixation	0	5	1500	0	0	1	1495	1	+	-9	0	0	0	0	0	0
2	2023-03-22	18:07:00	18:48:18	18:48:18:646	50	2	TNT_NoThink_CSp	NoThink	0	5	0	0	0	0	1000	1	DON'T THINK	-16	0	0	0	0	0	0
2	2023-03-22	18:07:00	18:48:23	18:48:23:662	50	3	TNT_NoThink_CSp	TNT_NoThink_CSp	0	5	0	0	0	0	5000	6	Cue31.jpg	-16	0	0	0	0	0	0
2	2023-03-22	18:07:00	18:48:25	18:48:25:135	50	4	TNT_NoThink_CSp	Intrusion	0	500	3000	0	79	1	1456	1	How <b>often</b> did you <b>think</b> about the <b>scene</b>?   <center><br><b>NEVER (1)    BRIEFLY (2)   OFTEN (3) </b>	-16	0	0	0	0	0	0
2	2023-03-22	18:07:00	18:48:27	18:48:27:666	51	1	TNT_Think_CSm	fixation	0	5	1000	0	0	1	995	1	+	-8	0	0	0	0	0	0
2	2023-03-22	18:07:00	18:48:28	18:48:28:679	51	2	TNT_Think_CSm	Think	0	5	0	0	0	0	1000	1	THINK	-16	0	0	0	0	0	0
2	2023-03-22	18:07:00	18:48:33	18:48:33:696	51	3	TNT_Think_CSm	TNT_Think_CSm	0	5	0	0	0	0	5000	3	Cue11.jpg	-16	0	0	0	0	0	0
2	2023-03-22	18:07:00	18:48:35	18:48:35:087	51	4	TNT_Think_CSm	Intrusion	0	1000	3000	0	81	1	1374	1	How <b>often</b> did you <b>think</b> about the <b>scene</b>?   <center><br><b>NEVER (1)    BRIEFLY (2)   OFTEN (3) </b>	-16	0	0	0	0	0	0
2	2023-03-22	18:07:00	18:48:37	18:48:37:200	52	1	TNT_NoThink_CSp	fixation	0	5	500	0	0	1	495	1	+	-9	0	0	0	0	0	0
2	2023-03-22	18:07:00	18:48:38	18:48:38:214	52	2	TNT_NoThink_CSp	NoThink	0	5	0	0	0	0	1000	1	DON'T THINK	-16	0	0	0	0	0	0
2	2023-03-22	18:07:00	18:48:43	18:48:43:230	52	3	TNT_NoThink_CSp	TNT_NoThink_CSp	0	5	0	0	0	0	5000	2	Cue24.jpg	-16	0	0	0	0	0	0
2	2023-03-22	18:07:00	18:48:43	18:48:43:567	52	4	TNT_NoThink_CSp	Intrusion	0	1000	3000	0	79	1	320	1	How <b>often</b> did you <b>think</b> about the <b>scene</b>?   <center><br><b>NEVER (1)    BRIEFLY (2)   OFTEN (3) </b>	-16	0	0	0	0	0	0
2	2023-03-22	18:07:00	18:48:46	18:48:46:734	53	1	TNT_NoThink_CSm	fixation	0	5	500	0	0	1	495	1	+	-9	0	0	0	0	0	0
2	2023-03-22	18:07:00	18:48:47	18:48:47:747	53	2	TNT_NoThink_CSm	NoThink	0	5	0	0	0	0	1000	1	DON'T THINK	-16	0	0	0	0	0	0
2	2023-03-22	18:07:00	18:48:52	18:48:52:764	53	3	TNT_NoThink_CSm	TNT_NoThink_CSm	0	5	0	0	0	0	5000	2	Cue30.jpg	-16	0	0	0	0	0	0
2	2023-03-22	18:07:00	18:48:53	18:48:53:279	53	4	TNT_NoThink_CSm	Intrusion	0	500	3000	0	80	1	499	1	How <b>often</b> did you <b>think</b> about the <b>scene</b>?   <center><br><b>NEVER (1)    BRIEFLY (2)   OFTEN (3) </b>	-16	0	0	0	0	0	0
2	2023-03-22	18:07:00	18:48:57	18:48:57:267	54	1	TNT_NoThink_CSm	fixation	0	5	1500	0	0	1	1495	1	+	-9	0	0	0	0	0	0
2	2023-03-22	18:07:00	18:48:58	18:48:58:281	54	2	TNT_NoThink_CSm	NoThink	0	5	0	0	0	0	1000	1	DON'T THINK	-16	0	0	0	0	0	0
2	2023-03-22	18:07:00	18:49:03	18:49:03:298	54	3	TNT_NoThink_CSm	TNT_NoThink_CSm	0	5	0	0	0	0	5000	3	Cue19.jpg	-16	0	0	0	0	0	0
2	2023-03-22	18:07:00	18:49:04	18:49:04:127	54	4	TNT_NoThink_CSm	Intrusion	0	1500	3000	0	79	1	812	1	How <b>often</b> did you <b>think</b> about the <b>scene</b>?   <center><br><b>NEVER (1)    BRIEFLY (2)   OFTEN (3) </b>	-16	0	0	0	0	0	0
2	2023-03-22	18:07:00	18:49:07	18:49:07:301	55	1	TNT_Think_CSm	fixation	0	5	1000	0	0	1	995	1	+	-9	0	0	0	0	0	0
2	2023-03-22	18:07:00	18:49:08	18:49:08:315	55	2	TNT_Think_CSm	Think	0	5	0	0	0	0	1000	1	THINK	-16	0	0	0	0	0	0
2	2023-03-22	18:07:00	18:49:13	18:49:13:332	55	3	TNT_Think_CSm	TNT_Think_CSm	0	5	0	0	0	0	5000	1	Cue21.jpg	-16	0	0	0	0	0	0
2	2023-03-22	18:07:00	18:49:14	18:49:14:863	55	4	TNT_Think_CSm	Intrusion	0	1000	3000	0	81	1	1514	1	How <b>often</b> did you <b>think</b> about the <b>scene</b>?   <center><br><b>NEVER (1)    BRIEFLY (2)   OFTEN (3) </b>	-16	0	0	0	0	0	0
2	2023-03-22	18:07:00	18:49:17	18:49:17:335	56	1	TNT_NoThink_CSp	fixation	0	5	1000	0	0	1	995	1	+	-9	0	0	0	0	0	0
2	2023-03-22	18:07:00	18:49:18	18:49:18:349	56	2	TNT_NoThink_CSp	NoThink	0	5	0	0	0	0	1000	1	DON'T THINK	-16	0	0	0	0	0	0
2	2023-03-22	18:07:00	18:49:23	18:49:23:366	56	3	TNT_NoThink_CSp	TNT_NoThink_CSp	0	5	0	0	0	0	5000	5	Cue22.jpg	-16	0	0	0	0	0	0
2	2023-03-22	18:07:00	18:49:24	18:49:24:999	56	4	TNT_NoThink_CSp	Intrusion	0	1500	3000	0	80	1	617	1	How <b>often</b> did you <b>think</b> about the <b>scene</b>?   <center><br><b>NEVER (1)    BRIEFLY (2)   OFTEN (3) </b>	-16	0	0	0	0	0	0
2	2023-03-22	18:07:00	18:49:26	18:49:26:870	57	1	TNT_Object_CSm	fixation	0	5	500	0	0	1	495	1	+	-9	0	0	0	0	0	0
2	2023-03-22	18:07:00	18:49:27	18:49:27:883	57	2	TNT_Object_CSm	Passive	0	5	0	0	0	0	1000	1	VIEW	-16	0	0	0	0	0	0
2	2023-03-22	18:07:00	18:49:32	18:49:32:900	57	3	TNT_Object_CSm	TNT_Object_CSm	0	1000	0	0	0	0	5000	3	Object6.jpg	-16	0	0	0	0	0	0
2	2023-03-22	18:07:00	18:49:35	18:49:35:399	58	1	TNT_Think_CSp	fixation	0	5	1500	0	0	1	1495	1	+	-8	0	0	0	0	0	0
2	2023-03-22	18:07:00	18:49:36	18:49:36:417	58	2	TNT_Think_CSp	Think	0	5	0	0	0	0	1000	1	THINK	-16	0	0	0	0	0	0
2	2023-03-22	18:07:00	18:49:41	18:49:41:433	58	3	TNT_Think_CSp	TNT_Think_CSp	0	5	0	0	0	0	5000	6	Cue12.jpg	-16	0	0	0	0	0	0
2	2023-03-22	18:07:00	18:49:42	18:49:42:335	58	4	TNT_Think_CSp	Intrusion	0	500	3000	0	79	1	885	1	How <b>often</b> did you <b>think</b> about the <b>scene</b>?   <center><br><b>NEVER (1)    BRIEFLY (2)   OFTEN (3) </b>	-16	0	0	0	0	0	0
2	2023-03-22	18:07:00	18:49:45	18:49:45:937	59	1	TNT_Object_CSp	fixation	0	5	500	0	0	1	495	1	+	-8	0	0	0	0	0	0
2	2023-03-22	18:07:00	18:49:46	18:49:46:950	59	2	TNT_Object_CSp	Passive	0	5	0	0	0	0	1000	1	VIEW	-16	0	0	0	0	0	0
2	2023-03-22	18:07:00	18:49:51	18:49:51:967	59	3	TNT_Object_CSp	TNT_Object_CSp	0	500	0	0	0	0	5000	2	Object4.jpg	-16	0	0	0	0	0	0
2	2023-03-22	18:07:00	18:49:52	18:49:52:467	60	1	TNT_NoThink_CSp	fixation	0	5	1000	0	0	1	995	1	+	-9	0	0	0	0	0	0
2	2023-03-22	18:07:00	18:49:53	18:49:53:484	60	2	TNT_NoThink_CSp	NoThink	0	5	0	0	0	0	1000	1	DON'T THINK	-16	0	0	0	0	0	0
2	2023-03-22	18:07:00	18:49:58	18:49:58:501	60	3	TNT_NoThink_CSp	TNT_NoThink_CSp	0	5	0	0	0	0	5000	1	Cue29.jpg	-16	0	0	0	0	0	0
2	2023-03-22	18:07:00	18:49:59	18:49:59:455	60	4	TNT_NoThink_CSp	Intrusion	0	500	3000	0	79	1	937	1	How <b>often</b> did you <b>think</b> about the <b>scene</b>?   <center><br><b>NEVER (1)    BRIEFLY (2)   OFTEN (3) </b>	-16	0	0	0	0	0	0
2	2023-03-22	18:07:00	18:50:03	18:50:03:05	61	1	TNT_NoThink_CSm	fixation	0	5	1500	0	0	1	1495	1	+	-9	0	0	0	0	0	0
2	2023-03-22	18:07:00	18:50:04	18:50:04:019	61	2	TNT_NoThink_CSm	NoThink	0	5	0	0	0	0	1000	1	DON'T THINK	-16	0	0	0	0	0	0
2	2023-03-22	18:07:00	18:50:09	18:50:09:035	61	3	TNT_NoThink_CSm	TNT_NoThink_CSm	0	5	0	0	0	0	5000	4	Cue14.jpg	-16	0	0	0	0	0	0
2	2023-03-22	18:07:00	18:50:10	18:50:10:919	61	4	TNT_NoThink_CSm	Intrusion	0	1000	3000	0	79	1	867	1	How <b>often</b> did you <b>think</b> about the <b>scene</b>?   <center><br><b>NEVER (1)    BRIEFLY (2)   OFTEN (3) </b>	-16	0	0	0	0	0	0
2	2023-03-22	18:07:00	18:50:12	18:50:12:539	62	1	TNT_NoThink_CSp	fixation	0	5	500	0	0	1	495	1	+	-4	0	0	0	0	0	0
2	2023-03-22	18:07:00	18:50:13	18:50:13:552	62	2	TNT_NoThink_CSp	NoThink	0	5	0	0	0	0	1000	1	DON'T THINK	-16	0	0	0	0	0	0
2	2023-03-22	18:07:00	18:50:18	18:50:18:569	62	3	TNT_NoThink_CSp	TNT_NoThink_CSp	0	5	0	0	0	0	5000	3	Cue8.jpg	-16	0	0	0	0	0	0
2	2023-03-22	18:07:00	18:50:19	18:50:19:135	62	4	TNT_NoThink_CSp	Intrusion	0	1500	3000	0	80	1	549	1	How <b>often</b> did you <b>think</b> about the <b>scene</b>?   <center><br><b>NEVER (1)    BRIEFLY (2)   OFTEN (3) </b>	-16	0	0	0	0	0	0
2	2023-03-22	18:07:00	18:50:22	18:50:22:573	63	1	TNT_Think_CSm	fixation	0	5	1000	0	0	1	995	1	+	-16	0	0	0	0	0	0
2	2023-03-22	18:07:00	18:50:23	18:50:23:586	63	2	TNT_Think_CSm	Think	0	5	0	0	0	0	1000	1	THINK	-16	0	0	0	0	0	0
2	2023-03-22	18:07:00	18:50:28	18:50:28:603	63	3	TNT_Think_CSm	TNT_Think_CSm	0	5	0	0	0	0	5000	6	Cue15.jpg	-16	0	0	0	0	0	0
2	2023-03-22	18:07:00	18:50:29	18:50:29:664	63	4	TNT_Think_CSm	Intrusion	0	1500	3000	0	81	1	1043	1	How <b>often</b> did you <b>think</b> about the <b>scene</b>?   <center><br><b>NEVER (1)    BRIEFLY (2)   OFTEN (3) </b>	-16	0	0	0	0	0	0
2	2023-03-22	18:07:00	18:50:33	18:50:33:106	64	1	TNT_NoThink_CSp	fixation	0	5	1500	0	0	1	1495	1	+	-8	0	0	0	0	0	0
2	2023-03-22	18:07:00	18:50:34	18:50:34:120	64	2	TNT_NoThink_CSp	NoThink	0	5	0	0	0	0	1000	1	DON'T THINK	-16	0	0	0	0	0	0
2	2023-03-22	18:07:00	18:50:39	18:50:39:137	64	3	TNT_NoThink_CSp	TNT_NoThink_CSp	0	5	0	0	0	0	5000	4	Cue32.jpg	-16	0	0	0	0	0	0
2	2023-03-22	18:07:00	18:50:40	18:50:40:983	64	4	TNT_NoThink_CSp	Intrusion	0	500	3000	0	79	1	830	1	How <b>often</b> did you <b>think</b> about the <b>scene</b>?   <center><br><b>NEVER (1)    BRIEFLY (2)   OFTEN (3) </b>	-16	0	0	0	0	0	0
2	2023-03-22	18:07:00	18:50:43	18:50:43:140	65	1	TNT_Think_CSp	fixation	0	5	1000	0	0	1	995	1	+	-9	0	0	0	0	0	0
2	2023-03-22	18:07:00	18:50:44	18:50:44:154	65	2	TNT_Think_CSp	Think	0	5	0	0	0	0	1000	1	THINK	-16	0	0	0	0	0	0
2	2023-03-22	18:07:00	18:50:49	18:50:49:171	65	3	TNT_Think_CSp	TNT_Think_CSp	0	5	0	0	0	0	5000	3	Cue36.jpg	-16	0	0	0	0	0	0
2	2023-03-22	18:07:00	18:50:51	18:50:51:177	65	4	TNT_Think_CSp	Intrusion	0	1000	3000	0	0	0	2000	1	How <b>often</b> did you <b>think</b> about the <b>scene</b>?   <center><br><b>NEVER (1)    BRIEFLY (2)   OFTEN (3) </b>	-16	0	0	0	0	0	0
2	2023-03-22	18:07:00	18:50:52	18:50:52:675	66	1	Expectancy_rating	fixation	0	5	500	0	0	1	495	1	+	-9	0	0	0	0	0	0
2	2023-03-22	18:07:00	18:51:02	18:51:02:253	66	2	Expectancy_rating	expectancy_rating	0	1500	0	0	4	0	9527	1	When you saw the <b>object</b>,   to what <b>degree (0-100%)</b> did you expect the <b>unpleasant sound to occur</b>?	-16	22	Cue22.jpg	-16	0	0	0
2	2023-03-22	18:07:00	18:51:23	18:51:23:037	67	1	Expectancy_rating	fixation	0	5	1500	0	0	1	1495	1	+	0	0	0	0	0	0	0
2	2023-03-22	18:07:00	18:51:39	18:51:39:705	67	2	Expectancy_rating	expectancy_rating	0	500	0	0	1	0	16615	1	When you saw the <b>object</b>,   to what <b>degree (0-100%)</b> did you expect the <b>unpleasant sound to occur</b>?	-16	44	Object4.jpg	-16	0	0	0
2	2023-03-22	18:07:00	18:51:50	18:51:50:847	68	1	Expectancy_rating	fixation	0	5	1500	0	0	1	1495	1	+	-8	0	0	0	0	0	0
2	2023-03-22	18:07:00	18:51:56	18:51:56:940	68	2	Expectancy_rating	expectancy_rating	0	1000	0	0	50	0	5069	1	When you saw the <b>object</b>,   to what <b>degree (0-100%)</b> did you expect the <b>unpleasant sound to occur</b>?	-16	9	Cue9.jpg	-16	0	0	0
2	2023-03-22	18:07:00	18:52:04	18:52:04:391	69	1	Expectancy_rating	fixation	0	5	500	0	0	1	495	1	+	-7	0	0	0	0	0	0
2	2023-03-22	18:07:00	18:52:10	18:52:10:340	69	2	Expectancy_rating	expectancy_rating	0	1000	0	0	9	0	5918	1	When you saw the <b>object</b>,   to what <b>degree (0-100%)</b> did you expect the <b>unpleasant sound to occur</b>?	-16	27	Cue27.jpg	-16	0	0	0
2	2023-03-22	18:07:00	18:52:21	18:52:21:881	70	1	Expectancy_rating	fixation	0	5	1000	0	0	1	995	1	+	-8	0	0	0	0	0	0
2	2023-03-22	18:07:00	18:52:39	18:52:39:192	70	2	Expectancy_rating	expectancy_rating	0	500	0	0	2	0	17290	1	When you saw the <b>object</b>,   to what <b>degree (0-100%)</b> did you expect the <b>unpleasant sound to occur</b>?	-16	42	Object2.jpg	-16	0	0	0
2	2023-03-22	18:07:00	18:52:41	18:52:41:448	71	1	Expectancy_rating	fixation	0	5	500	0	0	1	495	1	+	-8	0	0	0	0	0	0
2	2023-03-22	18:07:00	18:52:47	18:52:47:377	71	2	Expectancy_rating	expectancy_rating	0	1500	0	0	59	0	5906	1	When you saw the <b>object</b>,   to what <b>degree (0-100%)</b> did you expect the <b>unpleasant sound to occur</b>?	-16	21	Cue21.jpg	-16	0	0	0
2	2023-03-22	18:07:00	18:52:52	18:52:52:382	72	1	Expectancy_rating	fixation	0	5	1500	0	0	1	1495	1	+	-1	0	0	0	0	0	0
2	2023-03-22	18:07:00	18:52:56	18:52:56:376	72	2	Expectancy_rating	expectancy_rating	0	500	0	0	60	0	3948	1	When you saw the <b>object</b>,   to what <b>degree (0-100%)</b> did you expect the <b>unpleasant sound to occur</b>?	-16	7	Cue7.jpg	-16	0	0	0
2	2023-03-22	18:07:00	18:52:59	18:52:59:545	73	1	Expectancy_rating	fixation	0	5	1000	0	0	1	995	1	+	-8	0	0	0	0	0	0
2	2023-03-22	18:07:00	18:53:06	18:53:06:144	73	2	Expectancy_rating	expectancy_rating	0	1000	0	0	65	0	6573	1	When you saw the <b>object</b>,   to what <b>degree (0-100%)</b> did you expect the <b>unpleasant sound to occur</b>?	-16	1	Cue1.jpg	-16	0	0	0
2	2023-03-22	18:07:00	18:53:12	18:53:12:613	74	1	Expectancy_rating	fixation	0	5	500	0	0	1	495	1	+	-7	0	0	0	0	0	0
2	2023-03-22	18:07:00	18:53:16	18:53:16:245	74	2	Expectancy_rating	expectancy_rating	0	1500	0	0	76	0	3601	1	When you saw the <b>object</b>,   to what <b>degree (0-100%)</b> did you expect the <b>unpleasant sound to occur</b>?	-16	31	Cue31.jpg	-16	0	0	0
2	2023-03-22	18:07:00	18:53:21	18:53:21:342	75	1	Expectancy_rating	fixation	0	5	1500	0	0	1	1495	1	+	-16	0	0	0	0	0	0
2	2023-03-22	18:07:00	18:53:25	18:53:25:089	75	2	Expectancy_rating	expectancy_rating	0	1000	0	0	14	0	3692	1	When you saw the <b>object</b>,   to what <b>degree (0-100%)</b> did you expect the <b>unpleasant sound to occur</b>?	-7	11	Cue11.jpg	-7	0	0	0
2	2023-03-22	18:07:00	18:53:29	18:53:29:937	76	1	Expectancy_rating	fixation	0	5	1000	0	0	1	995	1	+	-9	0	0	0	0	0	0
2	2023-03-22	18:07:00	18:53:35	18:53:35:673	76	2	Expectancy_rating	expectancy_rating	0	1500	0	0	70	0	6692	1	When you saw the <b>object</b>,   to what <b>degree (0-100%)</b> did you expect the <b>unpleasant sound to occur</b>?	-16	45	Object5.jpg	-16	0	0	0
2	2023-03-22	18:07:00	18:53:41	18:53:41:908	77	1	Expectancy_rating	fixation	0	5	1500	0	0	1	1495	1	+	-16	0	0	0	0	0	0
2	2023-03-22	18:07:00	18:53:46	18:53:46:062	77	2	Expectancy_rating	expectancy_rating	0	500	0	0	8	0	5100	1	When you saw the <b>object</b>,   to what <b>degree (0-100%)</b> did you expect the <b>unpleasant sound to occur</b>?	-7	28	Cue28.jpg	-7	0	0	0
2	2023-03-22	18:07:00	18:53:48	18:53:48:489	78	1	Expectancy_rating	fixation	0	5	1000	0	0	1	995	1	+	-9	0	0	0	0	0	0
2	2023-03-22	18:07:00	18:53:50	18:53:50:863	78	2	Expectancy_rating	expectancy_rating	0	500	0	0	3	0	2333	1	When you saw the <b>object</b>,   to what <b>degree (0-100%)</b> did you expect the <b>unpleasant sound to occur</b>?	-16	25	Cue25.jpg	-16	0	0	0
2	2023-03-22	18:07:00	18:53:52	18:53:52:580	79	1	Expectancy_rating	fixation	0	5	500	0	0	1	495	1	+	-8	0	0	0	0	0	0
2	2023-03-22	18:07:00	18:53:56	18:53:56:513	79	2	Expectancy_rating	expectancy_rating	0	1000	0	0	0	0	3880	1	When you saw the <b>object</b>,   to what <b>degree (0-100%)</b> did you expect the <b>unpleasant sound to occur</b>?	-16	24	Cue24.jpg	-16	0	0	0
2	2023-03-22	18:07:00	18:53:59	18:53:59:109	80	1	Expectancy_rating	fixation	0	5	500	0	0	1	495	1	+	-16	0	0	0	0	0	0
2	2023-03-22	18:07:00	18:54:03	18:54:03:297	80	2	Expectancy_rating	expectancy_rating	0	1500	0	0	50	0	4148	1	When you saw the <b>object</b>,   to what <b>degree (0-100%)</b> did you expect the <b>unpleasant sound to occur</b>?	-16	4	Cue4.jpg	-16	0	0	0
2	2023-03-22	18:07:00	18:54:06	18:54:06:680	81	1	Expectancy_rating	fixation	0	5	1000	0	0	1	995	1	+	-8	0	0	0	0	0	0
2	2023-03-22	18:07:00	18:54:10	18:54:10:715	81	2	Expectancy_rating	expectancy_rating	0	1500	0	0	1	0	4004	1	When you saw the <b>object</b>,   to what <b>degree (0-100%)</b> did you expect the <b>unpleasant sound to occur</b>?	-16	48	Object8.jpg	-16	0	0	0
2	2023-03-22	18:07:00	18:54:14	18:54:14:478	82	1	Expectancy_rating	fixation	0	5	1500	0	0	1	1495	1	+	-16	0	0	0	0	0	0
2	2023-03-22	18:07:00	18:54:18	18:54:18:181	82	2	Expectancy_rating	expectancy_rating	0	500	0	0	59	0	3675	1	When you saw the <b>object</b>,   to what <b>degree (0-100%)</b> did you expect the <b>unpleasant sound to occur</b>?	-7	39	Cue39.jpg	-7	0	0	0
2	2023-03-22	18:07:00	18:54:21	18:54:21:150	83	1	Expectancy_rating	fixation	0	5	1500	0	0	1	1495	1	+	2	0	0	0	0	0	0
2	2023-03-22	18:07:00	18:54:28	18:54:28:165	83	2	Expectancy_rating	expectancy_rating	0	1000	0	0	12	0	6960	1	When you saw the <b>object</b>,   to what <b>degree (0-100%)</b> did you expect the <b>unpleasant sound to occur</b>?	-16	3	Cue3.jpg	-16	0	0	0
2	2023-03-22	18:07:00	18:54:30	18:54:30:565	84	1	Expectancy_rating	fixation	0	5	500	0	0	1	495	1	+	-8	0	0	0	0	0	0
2	2023-03-22	18:07:00	18:54:35	18:54:35:782	84	2	Expectancy_rating	expectancy_rating	0	1500	0	0	1	0	5167	1	When you saw the <b>object</b>,   to what <b>degree (0-100%)</b> did you expect the <b>unpleasant sound to occur</b>?	-16	41	Object1.jpg	-16	0	0	0
2	2023-03-22	18:07:00	18:54:39	18:54:39:624	85	1	Expectancy_rating	fixation	0	5	1000	0	0	1	995	1	+	-8	0	0	0	0	0	0
2	2023-03-22	18:07:00	18:54:44	18:54:44:216	85	2	Expectancy_rating	expectancy_rating	0	500	0	0	78	0	4549	1	When you saw the <b>object</b>,   to what <b>degree (0-100%)</b> did you expect the <b>unpleasant sound to occur</b>?	-16	30	Cue30.jpg	-16	0	0	0
2	2023-03-22	18:07:00	18:54:46	18:54:46:841	86	1	Expectancy_rating	fixation	0	5	1000	0	0	1	995	1	+	-8	0	0	0	0	0	0
2	2023-03-22	18:07:00	18:54:57	18:54:57:800	86	2	Expectancy_rating	expectancy_rating	0	1000	0	0	10	0	10916	1	When you saw the <b>object</b>,   to what <b>degree (0-100%)</b> did you expect the <b>unpleasant sound to occur</b>?	-16	18	Cue18.jpg	-16	0	0	0
2	2023-03-22	18:07:00	18:55:00	18:55:00:989	87	1	Expectancy_rating	fixation	0	5	500	0	0	1	495	1	+	-8	0	0	0	0	0	0
2	2023-03-22	18:07:00	18:55:04	18:55:04:017	87	2	Expectancy_rating	expectancy_rating	0	1000	0	0	31	0	3981	1	When you saw the <b>object</b>,   to what <b>degree (0-100%)</b> did you expect the <b>unpleasant sound to occur</b>?	-16	37	Cue37.jpg	-16	0	0	0
2	2023-03-22	18:07:00	18:55:07	18:55:07:245	88	1	Expectancy_rating	fixation	0	5	1500	0	0	1	1495	1	+	-8	0	0	0	0	0	0
2	2023-03-22	18:07:00	18:55:11	18:55:11:484	88	2	Expectancy_rating	expectancy_rating	0	1500	0	0	50	0	4226	1	When you saw the <b>object</b>,   to what <b>degree (0-100%)</b> did you expect the <b>unpleasant sound to occur</b>?	-16	32	Cue32.jpg	-16	0	0	0
2	2023-03-22	18:07:00	18:55:14	18:55:14:165	89	1	Expectancy_rating	fixation	0	5	500	0	0	1	495	1	+	-9	0	0	0	0	0	0
2	2023-03-22	18:07:00	18:55:20	18:55:20:051	89	2	Expectancy_rating	expectancy_rating	0	500	0	0	76	0	5828	1	When you saw the <b>object</b>,   to what <b>degree (0-100%)</b> did you expect the <b>unpleasant sound to occur</b>?	-7	8	Cue8.jpg	-7	0	0	0
2	2023-03-22	18:07:00	18:55:22	18:55:22:457	90	1	Expectancy_rating	fixation	0	5	1000	0	0	1	995	1	+	-8	0	0	0	0	0	0
2	2023-03-22	18:07:00	18:55:27	18:55:27:652	90	2	Expectancy_rating	expectancy_rating	0	500	0	0	19	0	5145	1	When you saw the <b>object</b>,   to what <b>degree (0-100%)</b> did you expect the <b>unpleasant sound to occur</b>?	-16	17	Cue17.jpg	-16	0	0	0
2	2023-03-22	18:07:00	18:55:30	18:55:30:701	91	1	Expectancy_rating	fixation	0	5	1500	0	0	1	1495	1	+	-9	0	0	0	0	0	0
2	2023-03-22	18:07:00	18:55:36	18:55:36:386	91	2	Expectancy_rating	expectancy_rating	0	1000	0	0	11	0	5654	1	When you saw the <b>object</b>,   to what <b>degree (0-100%)</b> did you expect the <b>unpleasant sound to occur</b>?	-7	23	Cue23.jpg	-7	0	0	0
2	2023-03-22	18:07:00	18:55:39	18:55:39:560	92	1	Expectancy_rating	fixation	0	5	1000	0	0	1	995	1	+	-9	0	0	0	0	0	0
2	2023-03-22	18:07:00	18:55:45	18:55:45:820	92	2	Expectancy_rating	expectancy_rating	0	1500	0	0	3	0	6212	1	When you saw the <b>object</b>,   to what <b>degree (0-100%)</b> did you expect the <b>unpleasant sound to occur</b>?	-16	14	Cue14.jpg	-16	0	0	0
2	2023-03-22	18:07:00	18:55:50	18:55:50:877	93	1	Expectancy_rating	fixation	0	5	1500	0	0	1	1495	1	+	-9	0	0	0	0	0	0
2	2023-03-22	18:07:00	18:55:56	18:55:56:903	93	2	Expectancy_rating	expectancy_rating	0	1000	0	0	77	0	4982	1	When you saw the <b>object</b>,   to what <b>degree (0-100%)</b> did you expect the <b>unpleasant sound to occur</b>?	-16	34	Cue34.jpg	-16	0	0	0
2	2023-03-22	18:07:00	18:55:58	18:55:58:676	94	1	Expectancy_rating	fixation	0	5	500	0	0	1	495	1	+	-8	0	0	0	0	0	0
2	2023-03-22	18:07:00	18:56:04	18:56:04:637	94	2	Expectancy_rating	expectancy_rating	0	1500	0	0	50	0	5918	1	When you saw the <b>object</b>,   to what <b>degree (0-100%)</b> did you expect the <b>unpleasant sound to occur</b>?	-16	13	Cue13.jpg	-16	0	0	0
2	2023-03-22	18:07:00	18:56:07	18:56:07:848	95	1	Expectancy_rating	fixation	0	5	1000	0	0	1	995	1	+	-8	0	0	0	0	0	0
2	2023-03-22	18:07:00	18:56:15	18:56:15:838	95	2	Expectancy_rating	expectancy_rating	0	500	0	0	11	0	7975	1	When you saw the <b>object</b>,   to what <b>degree (0-100%)</b> did you expect the <b>unpleasant sound to occur</b>?	-16	19	Cue19.jpg	-16	0	0	0
2	2023-03-22	18:07:00	18:56:18	18:56:18:749	96	1	Expectancy_rating	fixation	0	5	1500	0	0	1	1495	1	+	-8	0	0	0	0	0	0
2	2023-03-22	18:07:00	18:56:23	18:56:23:855	96	2	Expectancy_rating	expectancy_rating	0	1500	0	0	25	0	5065	1	When you saw the <b>object</b>,   to what <b>degree (0-100%)</b> did you expect the <b>unpleasant sound to occur</b>?	-16	40	Cue40.jpg	-16	0	0	0
2	2023-03-22	18:07:00	18:56:26	18:56:26:804	97	1	Expectancy_rating	fixation	0	5	500	0	0	1	495	1	+	-8	0	0	0	0	0	0
2	2023-03-22	18:07:00	18:56:29	18:56:29:022	97	2	Expectancy_rating	expectancy_rating	0	1000	0	0	50	0	2191	1	When you saw the <b>object</b>,   to what <b>degree (0-100%)</b> did you expect the <b>unpleasant sound to occur</b>?	-7	5	Cue5.jpg	-7	0	0	0
2	2023-03-22	18:07:00	18:56:32	18:56:32:412	98	1	Expectancy_rating	fixation	0	5	1500	0	0	1	1495	1	+	-8	0	0	0	0	0	0
2	2023-03-22	18:07:00	18:56:41	18:56:41:556	98	2	Expectancy_rating	expectancy_rating	0	500	0	0	40	0	9094	1	When you saw the <b>object</b>,   to what <b>degree (0-100%)</b> did you expect the <b>unpleasant sound to occur</b>?	-16	29	Cue29.jpg	-16	0	0	0
2	2023-03-22	18:07:00	18:56:43	18:56:43:769	99	1	Expectancy_rating	fixation	0	5	1000	0	0	1	995	1	+	-16	0	0	0	0	0	0
2	2023-03-22	18:07:00	18:56:51	18:56:51:190	99	2	Expectancy_rating	expectancy_rating	0	500	0	0	1	0	7366	1	When you saw the <b>object</b>,   to what <b>degree (0-100%)</b> did you expect the <b>unpleasant sound to occur</b>?	-7	47	Object7.jpg	-7	0	0	0
2	2023-03-22	18:07:00	18:56:53	18:56:53:397	100	1	Expectancy_rating	fixation	0	5	500	0	0	1	495	1	+	-8	0	0	0	0	0	0
2	2023-03-22	18:07:00	18:56:57	18:56:57:287	100	2	Expectancy_rating	expectancy_rating	0	1000	0	0	0	0	3845	1	When you saw the <b>object</b>,   to what <b>degree (0-100%)</b> did you expect the <b>unpleasant sound to occur</b>?	-16	16	Cue16.jpg	-16	0	0	0
2	2023-03-22	18:07:00	18:57:00	18:57:00:025	101	1	Expectancy_rating	fixation	0	5	1000	0	0	1	995	1	+	-9	0	0	0	0	0	0
2	2023-03-22	18:07:00	18:57:06	18:57:06:041	101	2	Expectancy_rating	expectancy_rating	0	1500	0	0	55	0	5964	1	When you saw the <b>object</b>,   to what <b>degree (0-100%)</b> did you expect the <b>unpleasant sound to occur</b>?	-16	46	Object6.jpg	-16	0	0	0
2	2023-03-22	18:07:00	18:57:08	18:57:08:789	102	1	Expectancy_rating	fixation	0	5	500	0	0	1	495	1	+	-9	0	0	0	0	0	0
2	2023-03-22	18:07:00	18:57:13	18:57:13:358	102	2	Expectancy_rating	expectancy_rating	0	1000	0	0	59	0	4516	1	When you saw the <b>object</b>,   to what <b>degree (0-100%)</b> did you expect the <b>unpleasant sound to occur</b>?	-7	36	Cue36.jpg	-7	0	0	0
2	2023-03-22	18:07:00	18:57:16	18:57:16:749	103	1	Expectancy_rating	fixation	0	5	1500	0	0	1	1495	1	+	-9	0	0	0	0	0	0
2	2023-03-22	18:07:00	18:57:24	18:57:24:309	103	2	Expectancy_rating	expectancy_rating	0	500	0	0	10	0	7542	1	When you saw the <b>object</b>,   to what <b>degree (0-100%)</b> did you expect the <b>unpleasant sound to occur</b>?	-16	6	Cue6.jpg	-16	0	0	0
2	2023-03-22	18:07:00	18:57:27	18:57:27:198	104	1	Expectancy_rating	fixation	0	5	1500	0	0	1	1495	1	+	-9	0	0	0	0	0	0
2	2023-03-22	18:07:00	18:57:32	18:57:32:676	104	2	Expectancy_rating	expectancy_rating	0	1500	0	0	2	0	5427	1	When you saw the <b>object</b>,   to what <b>degree (0-100%)</b> did you expect the <b>unpleasant sound to occur</b>?	-16	10	Cue10.jpg	-16	0	0	0
2	2023-03-22	18:07:00	18:57:35	18:57:35:557	105	1	Expectancy_rating	fixation	0	5	500	0	0	1	495	1	+	-8	0	0	0	0	0	0
2	2023-03-22	18:07:00	18:57:39	18:57:39:860	105	2	Expectancy_rating	expectancy_rating	0	500	0	0	59	0	4244	1	When you saw the <b>object</b>,   to what <b>degree (0-100%)</b> did you expect the <b>unpleasant sound to occur</b>?	-7	15	Cue15.jpg	-7	0	0	0
2	2023-03-22	18:07:00	18:57:42	18:57:42:265	106	1	Expectancy_rating	fixation	0	5	1000	0	0	1	995	1	+	-9	0	0	0	0	0	0
2	2023-03-22	18:07:00	18:57:52	18:57:52:160	106	2	Expectancy_rating	expectancy_rating	0	1500	0	0	60	0	9847	1	When you saw the <b>object</b>,   to what <b>degree (0-100%)</b> did you expect the <b>unpleasant sound to occur</b>?	-16	20	Cue20.jpg	-16	0	0	0
2	2023-03-22	18:07:00	18:57:55	18:57:55:545	107	1	Expectancy_rating	fixation	0	5	1000	0	0	1	995	1	+	-9	0	0	0	0	0	0
2	2023-03-22	18:07:00	18:57:59	18:57:59:294	107	2	Expectancy_rating	expectancy_rating	0	1000	0	0	50	0	3699	1	When you saw the <b>object</b>,   to what <b>degree (0-100%)</b> did you expect the <b>unpleasant sound to occur</b>?	-16	2	Cue2.jpg	-16	0	0	0
2	2023-03-22	18:07:00	18:58:02	18:58:02:637	108	1	Expectancy_rating	fixation	0	5	1500	0	0	1	1495	1	+	-9	0	0	0	0	0	0
2	2023-03-22	18:07:00	18:58:10	18:58:10:578	108	2	Expectancy_rating	expectancy_rating	0	1500	0	0	60	0	7920	1	When you saw the <b>object</b>,   to what <b>degree (0-100%)</b> did you expect the <b>unpleasant sound to occur</b>?	-16	38	Cue38.jpg	-16	0	0	0
2	2023-03-22	18:07:00	18:58:13	18:58:13:557	109	1	Expectancy_rating	fixation	0	5	500	0	0	1	495	1	+	-9	0	0	0	0	0	0
2	2023-03-22	18:07:00	18:58:20	18:58:20:345	109	2	Expectancy_rating	expectancy_rating	0	500	0	0	1	0	6754	1	When you saw the <b>object</b>,   to what <b>degree (0-100%)</b> did you expect the <b>unpleasant sound to occur</b>?	-7	35	Cue35.jpg	-7	0	0	0
2	2023-03-22	18:07:00	18:58:22	18:58:22:552	110	1	Expectancy_rating	fixation	0	5	1000	0	0	1	995	1	+	-2	0	0	0	0	0	0
2	2023-03-22	18:07:00	18:58:28	18:58:28:463	110	2	Expectancy_rating	expectancy_rating	0	1000	0	0	12	0	5890	1	When you saw the <b>object</b>,   to what <b>degree (0-100%)</b> did you expect the <b>unpleasant sound to occur</b>?	-16	26	Cue26.jpg	-16	0	0	0
2	2023-03-22	18:07:00	18:58:31	18:58:31:109	111	1	Expectancy_rating	fixation	0	5	500	0	0	1	495	1	+	-16	0	0	0	0	0	0
2	2023-03-22	18:07:00	18:58:35	18:58:35:163	111	2	Expectancy_rating	expectancy_rating	0	500	0	0	50	0	4019	1	When you saw the <b>object</b>,   to what <b>degree (0-100%)</b> did you expect the <b>unpleasant sound to occur</b>?	-7	43	Object3.jpg	-7	0	0	0
2	2023-03-22	18:07:00	18:58:39	18:58:39:356	112	1	Expectancy_rating	fixation	0	5	1500	0	0	1	1495	1	+	-8	0	0	0	0	0	0
2	2023-03-22	18:07:00	18:58:42	18:58:42:596	112	2	Expectancy_rating	expectancy_rating	0	1000	0	0	70	0	3217	1	When you saw the <b>object</b>,   to what <b>degree (0-100%)</b> did you expect the <b>unpleasant sound to occur</b>?	-16	33	Cue33.jpg	-16	0	0	0
2	2023-03-22	18:07:00	18:58:46	18:58:46:997	113	1	Expectancy_rating	fixation	0	5	1500	0	0	1	1495	1	+	-7	0	0	0	0	0	0
2	2023-03-22	18:07:00	18:58:52	18:58:52:347	113	2	Expectancy_rating	expectancy_rating	0	1500	0	0	50	0	6318	1	When you saw the <b>object</b>,   to what <b>degree (0-100%)</b> did you expect the <b>unpleasant sound to occur</b>?	-16	12	Cue12.jpg	-16	0	0	0
2	2023-03-22	18:07:00	18:58:56	18:58:56:073	114	1	TNT_NoThink_CSm	fixation	0	5	1000	0	0	1	995	1	+	-9	0	0	0	0	0	0
2	2023-03-22	18:07:00	18:58:57	18:58:57:083	114	2	TNT_NoThink_CSm	NoThink	0	5	0	0	0	0	1000	1	DON'T THINK	-16	0	0	0	0	0	0
2	2023-03-22	18:07:00	18:59:02	18:59:02:100	114	3	TNT_NoThink_CSm	TNT_NoThink_CSm	0	5	0	0	0	0	5000	3	Cue19.jpg	-16	0	0	0	0	0	0
2	2023-03-22	18:07:00	18:59:04	18:59:04:107	114	4	TNT_NoThink_CSm	Intrusion	0	1000	3000	0	0	0	2000	1	How <b>often</b> did you <b>think</b> about the <b>scene</b>?   <center><br><b>NEVER (1)    BRIEFLY (2)   OFTEN (3) </b>	-16	0	0	0	0	0	0
2	2023-03-22	18:07:00	18:59:05	18:59:05:603	115	1	TNT_Think_CSp	fixation	0	5	500	0	0	1	495	1	+	-7	0	0	0	0	0	0
2	2023-03-22	18:07:00	18:59:06	18:59:06:617	115	2	TNT_Think_CSp	Think	0	5	0	0	0	0	1000	1	THINK	-16	0	0	0	0	0	0
2	2023-03-22	18:07:00	18:59:11	18:59:11:634	115	3	TNT_Think_CSp	TNT_Think_CSp	0	5	0	0	0	0	5000	6	Cue12.jpg	-16	0	0	0	0	0	0
2	2023-03-22	18:07:00	18:59:12	18:59:12:191	115	4	TNT_Think_CSp	Intrusion	0	1500	3000	0	79	1	539	1	How <b>often</b> did you <b>think</b> about the <b>scene</b>?   <center><br><b>NEVER (1)    BRIEFLY (2)   OFTEN (3) </b>	-16	0	0	0	0	0	0
2	2023-03-22	18:07:00	18:59:16	18:59:16:138	116	1	TNT_NoThink_CSm	fixation	0	5	1500	0	0	1	1495	1	+	-16	0	0	0	0	0	0
2	2023-03-22	18:07:00	18:59:17	18:59:17:151	116	2	TNT_NoThink_CSm	NoThink	0	5	0	0	0	0	1000	1	DON'T THINK	-16	0	0	0	0	0	0
2	2023-03-22	18:07:00	18:59:22	18:59:22:168	116	3	TNT_NoThink_CSm	TNT_NoThink_CSm	0	5	0	0	0	0	5000	4	Cue14.jpg	-16	0	0	0	0	0	0
2	2023-03-22	18:07:00	18:59:22	18:59:22:574	116	4	TNT_NoThink_CSm	Intrusion	0	500	3000	0	80	1	390	1	How <b>often</b> did you <b>think</b> about the <b>scene</b>?   <center><br><b>NEVER (1)    BRIEFLY (2)   OFTEN (3) </b>	-16	0	0	0	0	0	0
2	2023-03-22	18:07:00	18:59:25	18:59:25:671	117	1	TNT_Object_CSm	fixation	0	5	500	0	0	1	495	1	+	-9	0	0	0	0	0	0
2	2023-03-22	18:07:00	18:59:26	18:59:26:685	117	2	TNT_Object_CSm	Passive	0	5	0	0	0	0	1000	1	VIEW	-16	0	0	0	0	0	0
2	2023-03-22	18:07:00	18:59:31	18:59:31:702	117	3	TNT_Object_CSm	TNT_Object_CSm	0	500	0	0	0	0	5000	1	Object3.jpg	-16	0	0	0	0	0	0
2	2023-03-22	18:07:00	18:59:33	18:59:33:201	118	1	TNT_Think_CSp	fixation	0	5	1000	0	0	1	995	1	+	-8	0	0	0	0	0	0
2	2023-03-22	18:07:00	18:59:34	18:59:34:218	118	2	TNT_Think_CSp	Think	0	5	0	0	0	0	1000	1	THINK	-16	0	0	0	0	0	0
2	2023-03-22	18:07:00	18:59:39	18:59:39:235	118	3	TNT_Think_CSp	TNT_Think_CSp	0	5	0	0	0	0	5000	2	Cue4.jpg	-16	0	0	0	0	0	0
2	2023-03-22	18:07:00	18:59:40	18:59:40:686	118	4	TNT_Think_CSp	Intrusion	0	500	3000	0	81	1	1434	1	How <b>often</b> did you <b>think</b> about the <b>scene</b>?   <center><br><b>NEVER (1)    BRIEFLY (2)   OFTEN (3) </b>	-16	0	0	0	0	0	0
2	2023-03-22	18:07:00	18:59:43	18:59:43:739	119	1	TNT_NoThink_CSm	fixation	0	5	1500	0	0	1	1495	1	+	-8	0	0	0	0	0	0
2	2023-03-22	18:07:00	18:59:44	18:59:44:752	119	2	TNT_NoThink_CSm	NoThink	0	5	0	0	0	0	1000	1	DON'T THINK	-16	0	0	0	0	0	0
2	2023-03-22	18:07:00	18:59:49	18:59:49:769	119	3	TNT_NoThink_CSm	TNT_NoThink_CSm	0	5	0	0	0	0	5000	6	Cue34.jpg	-16	0	0	0	0	0	0
2	2023-03-22	18:07:00	18:59:50	18:59:50:494	119	4	TNT_NoThink_CSm	Intrusion	0	1500	3000	0	79	1	708	1	How <b>often</b> did you <b>think</b> about the <b>scene</b>?   <center><br><b>NEVER (1)    BRIEFLY (2)   OFTEN (3) </b>	-16	0	0	0	0	0	0
2	2023-03-22	18:07:00	18:59:53	18:59:53:773	120	1	TNT_NoThink_CSp	fixation	0	5	1000	0	0	1	995	1	+	-8	0	0	0	0	0	0
2	2023-03-22	18:07:00	18:59:54	18:59:54:786	120	2	TNT_NoThink_CSp	NoThink	0	5	0	0	0	0	1000	1	DON'T THINK	-16	0	0	0	0	0	0
2	2023-03-22	18:07:00	18:59:59	18:59:59:803	120	3	TNT_NoThink_CSp	TNT_NoThink_CSp	0	5	0	0	0	0	5000	6	Cue31.jpg	-16	0	0	0	0	0	0
2	2023-03-22	18:07:00	19:00:00	19:00:00:302	120	4	TNT_NoThink_CSp	Intrusion	0	1000	3000	0	80	1	482	1	How <b>often</b> did you <b>think</b> about the <b>scene</b>?   <center><br><b>NEVER (1)    BRIEFLY (2)   OFTEN (3) </b>	-16	0	0	0	0	0	0
2	2023-03-22	18:07:00	19:00:03	19:00:03:307	121	1	TNT_Think_CSm	fixation	0	5	500	0	0	1	495	1	+	-8	0	0	0	0	0	0
2	2023-03-22	18:07:00	19:00:04	19:00:04:320	121	2	TNT_Think_CSm	Think	0	5	0	0	0	0	1000	1	THINK	-16	0	0	0	0	0	0
2	2023-03-22	18:07:00	19:00:09	19:00:09:337	121	3	TNT_Think_CSm	TNT_Think_CSm	0	5	0	0	0	0	5000	3	Cue11.jpg	-16	0	0	0	0	0	0
2	2023-03-22	18:07:00	19:00:10	19:00:10:159	121	4	TNT_Think_CSm	Intrusion	0	1500	3000	0	81	1	804	1	How <b>often</b> did you <b>think</b> about the <b>scene</b>?   <center><br><b>NEVER (1)    BRIEFLY (2)   OFTEN (3) </b>	-16	0	0	0	0	0	0
2	2023-03-22	18:07:00	19:00:13	19:00:13:841	122	1	TNT_Object_CSm	fixation	0	5	1500	0	0	1	1495	1	+	-1	0	0	0	0	0	0
2	2023-03-22	18:07:00	19:00:14	19:00:14:864	122	2	TNT_Object_CSm	Passive	0	5	0	0	0	0	1000	1	VIEW	-16	0	0	0	0	0	0
2	2023-03-22	18:07:00	19:00:19	19:00:19:871	122	3	TNT_Object_CSm	TNT_Object_CSm	0	1500	0	0	0	0	5000	4	Object2.jpg	-16	0	0	0	0	0	0
2	2023-03-22	18:07:00	19:00:21	19:00:21:870	123	1	TNT_Object_CSp	fixation	0	5	500	0	0	1	495	1	+	-9	0	0	0	0	0	0
2	2023-03-22	18:07:00	19:00:22	19:00:22:888	123	2	TNT_Object_CSp	Passive	0	5	0	0	0	0	1000	1	VIEW	-16	0	0	0	0	0	0
2	2023-03-22	18:07:00	19:00:28	19:00:28:905	123	3	TNT_Object_CSp	TNT_Object_CSp	0	1500	0	0	0	0	5000	4	Object5.jpg	-16	0	0	0	0	0	0
2	2023-03-22	18:07:00	19:00:30	19:00:30:403	124	1	TNT_NoThink_CSp	fixation	0	5	1000	0	0	1	995	1	+	-9	0	0	0	0	0	0
2	2023-03-22	18:07:00	19:00:31	19:00:31:422	124	2	TNT_NoThink_CSp	NoThink	0	5	0	0	0	0	1000	1	DON'T THINK	-16	0	0	0	0	0	0
2	2023-03-22	18:07:00	19:00:36	19:00:36:438	124	3	TNT_NoThink_CSp	TNT_NoThink_CSp	0	5	0	0	0	0	5000	4	Cue32.jpg	-16	0	0	0	0	0	0
2	2023-03-22	18:07:00	19:00:37	19:00:37:294	124	4	TNT_NoThink_CSp	Intrusion	0	500	3000	0	79	1	839	1	How <b>often</b> did you <b>think</b> about the <b>scene</b>?   <center><br><b>NEVER (1)    BRIEFLY (2)   OFTEN (3) </b>	-16	0	0	0	0	0	0
2	2023-03-22	18:07:00	19:00:40	19:00:40:443	125	1	TNT_Think_CSm	fixation	0	5	1000	0	0	1	995	1	+	-9	0	0	0	0	0	0
2	2023-03-22	18:07:00	19:00:41	19:00:41:456	125	2	TNT_Think_CSm	Think	0	5	0	0	0	0	1000	1	THINK	-16	0	0	0	0	0	0
2	2023-03-22	18:07:00	19:00:46	19:00:46:473	125	3	TNT_Think_CSm	TNT_Think_CSm	0	5	0	0	0	0	5000	2	Cue33.jpg	-16	0	0	0	0	0	0
2	2023-03-22	18:07:00	19:00:47	19:00:47:470	125	4	TNT_Think_CSm	Intrusion	0	1000	3000	0	81	1	981	1	How <b>often</b> did you <b>think</b> about the <b>scene</b>?   <center><br><b>NEVER (1)    BRIEFLY (2)   OFTEN (3) </b>	-16	0	0	0	0	0	0
2	2023-03-22	18:07:00	19:00:51	19:00:51:977	126	1	TNT_Object_CSp	fixation	0	5	1500	0	0	1	1495	1	+	-16	0	0	0	0	0	0
2	2023-03-22	18:07:00	19:00:52	19:00:52:990	126	2	TNT_Object_CSp	Passive	0	5	0	0	0	0	1000	1	VIEW	-16	0	0	0	0	0	0
2	2023-03-22	18:07:00	19:00:57	19:00:57:07	126	3	TNT_Object_CSp	TNT_Object_CSp	0	1500	0	0	0	0	5000	1	Object1.jpg	-16	0	0	0	0	0	0
2	2023-03-22	18:07:00	19:00:59	19:00:59:06	127	1	TNT_NoThink_CSm	fixation	0	5	500	0	0	1	495	1	+	-9	0	0	0	0	0	0
2	2023-03-22	18:07:00	19:01:00	19:01:00:024	127	2	TNT_NoThink_CSm	NoThink	0	5	0	0	0	0	1000	1	DON'T THINK	-16	0	0	0	0	0	0
2	2023-03-22	18:07:00	19:01:05	19:01:05:040	127	3	TNT_NoThink_CSm	TNT_NoThink_CSm	0	5	0	0	0	0	5000	5	Cue6.jpg	-16	0	0	0	0	0	0
2	2023-03-22	18:07:00	19:01:05	19:01:05:646	127	4	TNT_NoThink_CSm	Intrusion	0	1500	3000	0	79	1	589	1	How <b>often</b> did you <b>think</b> about the <b>scene</b>?   <center><br><b>NEVER (1)    BRIEFLY (2)   OFTEN (3) </b>	-16	0	0	0	0	0	0
2	2023-03-22	18:07:00	19:01:09	19:01:09:044	128	1	TNT_NoThink_CSp	fixation	0	5	1000	0	0	1	995	1	+	-8	0	0	0	0	0	0
2	2023-03-22	18:07:00	19:01:10	19:01:10:057	128	2	TNT_NoThink_CSp	NoThink	0	5	0	0	0	0	1000	1	DON'T THINK	-16	0	0	0	0	0	0
2	2023-03-22	18:07:00	19:01:15	19:01:15:074	128	3	TNT_NoThink_CSp	TNT_NoThink_CSp	0	5	0	0	0	0	5000	1	Cue29.jpg	-16	0	0	0	0	0	0
2	2023-03-22	18:07:00	19:01:15	19:01:15:678	128	4	TNT_NoThink_CSp	Intrusion	0	1000	3000	0	80	1	587	1	How <b>often</b> did you <b>think</b> about the <b>scene</b>?   <center><br><b>NEVER (1)    BRIEFLY (2)   OFTEN (3) </b>	-16	0	0	0	0	0	0
2	2023-03-22	18:07:00	19:01:18	19:01:18:578	129	1	TNT_Object_CSm	fixation	0	5	500	0	0	1	495	1	+	-8	0	0	0	0	0	0
2	2023-03-22	18:07:00	19:01:19	19:01:19:591	129	2	TNT_Object_CSm	Passive	0	5	0	0	0	0	1000	1	VIEW	-16	0	0	0	0	0	0
2	2023-03-22	18:07:00	19:01:24	19:01:24:608	129	3	TNT_Object_CSm	TNT_Object_CSm	0	1000	0	0	0	0	5000	2	Object7.jpg	-16	0	0	0	0	0	0
2	2023-03-22	18:07:00	19:01:27	19:01:27:108	130	1	TNT_NoThink_CSm	fixation	0	5	1500	0	0	1	1495	1	+	-8	0	0	0	0	0	0
2	2023-03-22	18:07:00	19:01:28	19:01:28:125	130	2	TNT_NoThink_CSm	NoThink	0	5	0	0	0	0	1000	1	DON'T THINK	-16	0	0	0	0	0	0
2	2023-03-22	18:07:00	19:01:33	19:01:33:142	130	3	TNT_NoThink_CSm	TNT_NoThink_CSm	0	5	0	0	0	0	5000	2	Cue30.jpg	-16	0	0	0	0	0	0
2	2023-03-22	18:07:00	19:01:34	19:01:34:078	130	4	TNT_NoThink_CSm	Intrusion	0	500	3000	0	80	1	919	1	How <b>often</b> did you <b>think</b> about the <b>scene</b>?   <center><br><b>NEVER (1)    BRIEFLY (2)   OFTEN (3) </b>	-16	0	0	0	0	0	0
2	2023-03-22	18:07:00	19:01:37	19:01:37:146	131	1	TNT_Object_CSp	fixation	0	5	1000	0	0	1	995	1	+	-8	0	0	0	0	0	0
2	2023-03-22	18:07:00	19:01:38	19:01:38:159	131	2	TNT_Object_CSp	Passive	0	5	0	0	0	0	1000	1	VIEW	-16	0	0	0	0	0	0
2	2023-03-22	18:07:00	19:01:43	19:01:43:176	131	3	TNT_Object_CSp	TNT_Object_CSp	0	500	0	0	0	0	5000	3	Object8.jpg	-16	0	0	0	0	0	0
2	2023-03-22	18:07:00	19:01:44	19:01:44:174	132	1	TNT_Think_CSm	fixation	0	5	500	0	0	1	495	1	+	-9	0	0	0	0	0	0
2	2023-03-22	18:07:00	19:01:45	19:01:45:193	132	2	TNT_Think_CSm	Think	0	5	0	0	0	0	1000	1	THINK	-16	0	0	0	0	0	0
2	2023-03-22	18:07:00	19:01:50	19:01:50:210	132	3	TNT_Think_CSm	TNT_Think_CSm	0	5	0	0	0	0	5000	5	Cue13.jpg	-16	0	0	0	0	0	0
2	2023-03-22	18:07:00	19:01:51	19:01:51:278	132	4	TNT_Think_CSm	Intrusion	0	1500	3000	0	81	1	1050	1	How <b>often</b> did you <b>think</b> about the <b>scene</b>?   <center><br><b>NEVER (1)    BRIEFLY (2)   OFTEN (3) </b>	-16	0	0	0	0	0	0
2	2023-03-22	18:07:00	19:01:54	19:01:54:714	133	1	TNT_Think_CSp	fixation	0	5	1500	0	0	1	1495	1	+	-9	0	0	0	0	0	0
2	2023-03-22	18:07:00	19:01:55	19:01:55:727	133	2	TNT_Think_CSp	Think	0	5	0	0	0	0	1000	1	THINK	-16	0	0	0	0	0	0
2	2023-03-22	18:07:00	19:02:00	19:02:00:744	133	3	TNT_Think_CSp	TNT_Think_CSp	0	5	0	0	0	0	5000	4	Cue23.jpg	-16	0	0	0	0	0	0
2	2023-03-22	18:07:00	19:02:01	19:02:01:742	133	4	TNT_Think_CSp	Intrusion	0	1000	3000	0	81	1	981	1	How <b>often</b> did you <b>think</b> about the <b>scene</b>?   <center><br><b>NEVER (1)    BRIEFLY (2)   OFTEN (3) </b>	-16	0	0	0	0	0	0
