subject	date	time	currenttime	currenttime_plus_ms	blocknum	trialnum	blockcode	trialcode	pretrialpause	posttrialpause	trialduration	trialtimeout	response	correct	latency	stimulusnumber1	stimulusitem1	stimulusonset1	stimulusnumber2	stimulusitem2	stimulusonset2	stimulusnumber3	stimulusitem3	stimulusonset3
14	2023-04-13	10:04:41	10:05:55	10:05:55:663	1	1	countdown	instructions	0	5	0	0	57	0	25587	1	<center><br><br> <b>WATCH CALLIBRATION</b>.                <br><br><br><br>In a couple of seconds a <b>countdown</b> will start that counts down from 3 to 1,       <br><br>after which the screen will show the instruction <b>PRESS BUTTON</b>.       <br><br><b>As soon as you see that screen</b>, you must shortly press the button on your watch.       <br><br> <br><br> Press SPACE  to continue.	-16	0	0	0	0	0	0
14	2023-04-13	10:04:41	10:05:56	10:05:56:694	1	2	countdown	countdown_3	0	5	0	0	0	0	1000	1	3	-16	0	0	0	0	0	0
14	2023-04-13	10:04:41	10:05:57	10:05:57:711	1	3	countdown	countdown_2	0	5	0	0	0	0	1000	1	2	-16	0	0	0	0	0	0
14	2023-04-13	10:04:41	10:05:58	10:05:58:728	1	4	countdown	countdown_1	0	5	0	0	0	0	1000	1	1	-16	0	0	0	0	0	0
14	2023-04-13	10:04:41	10:05:59	10:05:59:744	1	5	countdown	press_button	0	5	0	0	0	0	1000	1	PRESS BUTTON NOW	-16	0	0	0	0	0	0
14	2023-04-13	10:04:41	10:09:07	10:09:07:044	2	1	Rest	Rest	0	5	0	0	0	0	180000	1	+	-7	0	0	0	0	0	0
14	2023-04-13	10:04:41	10:09:16	10:09:16:116	3	1	countdown	instructions	0	5	0	0	57	0	9028	1	<center><br><br> <b>WATCH CALLIBRATION</b>.                <br><br><br><br>In a couple of seconds a <b>countdown</b> will start that counts down from 3 to 1,       <br><br>after which the screen will show the instruction <b>PRESS BUTTON</b>.       <br><br><b>As soon as you see that screen</b>, you must shortly press the button on your watch.       <br><br> <br><br> Press SPACE  to continue.	-4	0	0	0	0	0	0
14	2023-04-13	10:04:41	10:09:17	10:09:17:154	3	2	countdown	countdown_3	0	5	0	0	0	0	1000	1	3	-8	0	0	0	0	0	0
14	2023-04-13	10:04:41	10:09:18	10:09:18:171	3	3	countdown	countdown_2	0	5	0	0	0	0	1000	1	2	-16	0	0	0	0	0	0
14	2023-04-13	10:04:41	10:09:19	10:09:19:188	3	4	countdown	countdown_1	0	5	0	0	0	0	1000	1	1	-16	0	0	0	0	0	0
14	2023-04-13	10:04:41	10:09:20	10:09:20:204	3	5	countdown	press_button	0	5	0	0	0	0	1000	1	PRESS BUTTON NOW	-16	0	0	0	0	0	0
14	2023-04-13	10:04:41	10:10:04	10:10:04:512	2	1	Reminder_NoThink_CSp	fixation	0	5	500	0	0	1	495	1	+	-16	0	0	0	0	0	0
14	2023-04-13	10:04:41	10:10:09	10:10:09:551	2	2	Reminder_NoThink_CSp	NoThink_CSp	0	5	0	0	0	0	5000	1	+	-8	1	Cue20.jpg	-8	1	Target20.jpg	-8
14	2023-04-13	10:04:41	10:10:16	10:10:16:733	2	3	Reminder_NoThink_CSp	valence	0	5	0	0	10	0	7129	1	I found these images to be...	2	0	0	0	0	0	0
14	2023-04-13	10:04:41	10:10:30	10:10:30:401	2	4	Reminder_NoThink_CSp	expectancy	0	500	0	0	50	0	13610	1	When you saw the <b>object-scene</b>,   to what <b>degree (0-100%)</b> did you expect the <b>unpleasant sound to occur</b>?	0	0	0	0	0	0	0
14	2023-04-13	10:04:41	10:10:32	10:10:32:401	3	1	Reminder_Think_CSp	fixation	0	5	1500	0	0	1	1495	1	+	-15	0	0	0	0	0	0
14	2023-04-13	10:04:41	10:10:37	10:10:37:418	3	2	Reminder_Think_CSp	Think_CSp	0	5	0	0	0	0	5000	1	+	-16	4	Cue13.jpg	-16	4	Target13.jpg	-16
14	2023-04-13	10:04:41	10:10:41	10:10:41:401	3	3	Reminder_Think_CSp	valence	0	5	0	0	50	0	3959	1	I found these images to be...	-16	0	0	0	0	0	0
14	2023-04-13	10:04:41	10:10:43	10:10:43:552	3	4	Reminder_Think_CSp	expectancy	0	1500	0	0	50	0	2111	1	When you saw the <b>object-scene</b>,   to what <b>degree (0-100%)</b> did you expect the <b>unpleasant sound to occur</b>?	-10	0	0	0	0	0	0
14	2023-04-13	10:04:41	10:10:46	10:10:46:051	4	1	Reminder_NoThink_CSm	fixation	0	5	1000	0	0	1	995	1	+	-15	0	0	0	0	0	0
14	2023-04-13	10:04:41	10:10:51	10:10:51:068	4	2	Reminder_NoThink_CSm	NoThink_CSm	0	5	0	0	0	0	5000	1	+	-16	1	Cue16.jpg	-16	1	Target16.jpg	-16
14	2023-04-13	10:04:41	10:10:55	10:10:55:435	4	3	Reminder_NoThink_CSm	valence	0	5	0	0	50	0	4339	1	I found these images to be...	-16	0	0	0	0	0	0
14	2023-04-13	10:04:41	10:11:02	10:11:02:119	4	4	Reminder_NoThink_CSm	expectancy	0	1000	0	0	50	0	6645	1	When you saw the <b>object-scene</b>,   to what <b>degree (0-100%)</b> did you expect the <b>unpleasant sound to occur</b>?	-10	0	0	0	0	0	0
14	2023-04-13	10:04:41	10:11:03	10:11:03:619	5	1	Reminder_Objects_CSm	fixation	0	5	500	0	0	1	495	1	+	-15	0	0	0	0	0	0
14	2023-04-13	10:04:41	10:11:08	10:11:08:636	5	2	Reminder_Objects_CSm	Objects_CSm	0	5	0	0	0	0	5000	4	Object1.jpg	-16	0	0	0	0	0	0
14	2023-04-13	10:04:41	10:11:15	10:11:15:137	5	3	Reminder_Objects_CSm	expectancy_object	0	500	0	0	0	0	6476	1	When you saw the <b>object</b>,   to what <b>degree (0-100%)</b> did you expect the <b>unpleasant sound to occur</b>?	-16	0	0	0	0	0	0
14	2023-04-13	10:04:41	10:11:16	10:11:16:636	6	1	Reminder_Objects_CSp	fixation	0	5	1000	0	0	1	995	1	+	-15	0	0	0	0	0	0
14	2023-04-13	10:04:41	10:11:21	10:11:21:654	6	2	Reminder_Objects_CSp	Objects_CSp	0	5	0	0	0	0	5000	1	Object6.jpg	-14	0	0	0	0	0	0
14	2023-04-13	10:04:41	10:11:28	10:11:28:437	6	3	Reminder_Objects_CSp	expectancy_object	0	1500	0	0	0	0	6755	1	When you saw the <b>object</b>,   to what <b>degree (0-100%)</b> did you expect the <b>unpleasant sound to occur</b>?	-16	0	0	0	0	0	0
14	2023-04-13	10:04:41	10:11:31	10:11:31:436	7	1	Reminder_NoThink_CSm	fixation	0	5	1500	0	0	1	1495	1	+	-15	0	0	0	0	0	0
14	2023-04-13	10:04:41	10:11:36	10:11:36:454	7	2	Reminder_NoThink_CSm	NoThink_CSm	0	5	0	0	0	0	5000	1	+	-14	6	Cue22.jpg	-14	6	Target22.jpg	-14
14	2023-04-13	10:04:41	10:11:38	10:11:38:338	7	3	Reminder_NoThink_CSm	valence	0	5	0	0	50	0	1858	1	I found these images to be...	-16	0	0	0	0	0	0
14	2023-04-13	10:04:41	10:11:43	10:11:43:071	7	4	Reminder_NoThink_CSm	expectancy	0	1000	0	0	0	0	4686	1	When you saw the <b>object-scene</b>,   to what <b>degree (0-100%)</b> did you expect the <b>unpleasant sound to occur</b>?	-12	0	0	0	0	0	0
14	2023-04-13	10:04:41	10:11:44	10:11:44:570	8	1	Reminder_Think_CSp	fixation	0	5	500	0	0	1	495	1	+	-15	0	0	0	0	0	0
14	2023-04-13	10:04:41	10:11:49	10:11:49:588	8	2	Reminder_Think_CSp	Think_CSp	0	5	0	0	0	0	5000	1	+	-13	5	Cue9.jpg	-13	5	Target9.jpg	-13
14	2023-04-13	10:04:41	10:11:56	10:11:56:206	8	3	Reminder_Think_CSp	valence	0	5	0	0	50	0	6588	1	I found these images to be...	-16	0	0	0	0	0	0
14	2023-04-13	10:04:41	10:12:00	10:12:00:572	8	4	Reminder_Think_CSp	expectancy	0	1500	0	0	90	0	4298	1	When you saw the <b>object-scene</b>,   to what <b>degree (0-100%)</b> did you expect the <b>unpleasant sound to occur</b>?	-12	0	0	0	0	0	0
14	2023-04-13	10:04:41	10:12:03	10:12:03:057	9	1	Reminder_NoThink_CSp	fixation	0	5	1000	0	0	1	995	1	+	-10	0	0	0	0	0	0
14	2023-04-13	10:04:41	10:12:08	10:12:08:074	9	2	Reminder_NoThink_CSp	NoThink_CSp	0	5	0	0	0	0	5000	1	+	-16	5	Cue32.jpg	-16	5	Target32.jpg	-16
14	2023-04-13	10:04:41	10:12:11	10:12:11:07	9	3	Reminder_NoThink_CSp	valence	0	5	0	0	0	0	2911	1	I found these images to be...	-16	0	0	0	0	0	0
14	2023-04-13	10:04:41	10:12:16	10:12:16:057	9	4	Reminder_NoThink_CSp	expectancy	0	500	0	0	80	0	5001	1	When you saw the <b>object-scene</b>,   to what <b>degree (0-100%)</b> did you expect the <b>unpleasant sound to occur</b>?	-12	0	0	0	0	0	0
14	2023-04-13	10:04:41	10:12:18	10:12:18:055	10	1	PracticeItems_Think	fixation	0	5	1500	0	0	1	1495	1	+	-15	0	0	0	0	0	0
14	2023-04-13	10:04:41	10:12:23	10:12:23:074	10	2	PracticeItems_Think	PracticeItems_Think	0	5	0	0	0	0	5000	1	+	-13	1	Cue37.jpg	-13	1	Target37.jpg	-13
14	2023-04-13	10:04:41	10:12:24	10:12:24:341	10	3	PracticeItems_Think	valence	0	5	0	0	50	0	1247	1	I found these images to be...	-16	0	0	0	0	0	0
14	2023-04-13	10:04:41	10:12:25	10:12:25:608	10	4	PracticeItems_Think	expectancy	0	500	0	0	50	0	1219	1	When you saw the <b>object-scene</b>,   to what <b>degree (0-100%)</b> did you expect the <b>unpleasant sound to occur</b>?	-12	0	0	0	0	0	0
14	2023-04-13	10:04:41	10:12:27	10:12:27:107	11	1	Reminder_Think_CSm	fixation	0	5	1000	0	0	1	995	1	+	-15	0	0	0	0	0	0
14	2023-04-13	10:04:41	10:12:32	10:12:32:124	11	2	Reminder_Think_CSm	Think_CSm	0	5	0	0	0	0	5000	1	+	-14	4	Cue24.jpg	-14	4	Target24.jpg	-14
14	2023-04-13	10:04:41	10:12:36	10:12:36:775	11	3	Reminder_Think_CSm	valence	0	5	0	0	10	0	4620	1	I found these images to be...	-16	0	0	0	0	0	0
14	2023-04-13	10:04:41	10:12:42	10:12:42:459	11	4	Reminder_Think_CSm	expectancy	0	1500	0	0	10	0	5641	1	When you saw the <b>object-scene</b>,   to what <b>degree (0-100%)</b> did you expect the <b>unpleasant sound to occur</b>?	-12	0	0	0	0	0	0
14	2023-04-13	10:04:41	10:12:44	10:12:44:458	12	1	Reminder_Objects_CSm	fixation	0	5	500	0	0	1	495	1	+	-15	0	0	0	0	0	0
14	2023-04-13	10:04:41	10:12:49	10:12:49:475	12	2	Reminder_Objects_CSm	Objects_CSm	0	5	0	0	0	0	5000	2	Object4.jpg	-14	0	0	0	0	0	0
14	2023-04-13	10:04:41	10:12:57	10:12:57:360	12	3	Reminder_Objects_CSm	expectancy_object	0	1000	0	0	0	0	7861	1	When you saw the <b>object</b>,   to what <b>degree (0-100%)</b> did you expect the <b>unpleasant sound to occur</b>?	-16	0	0	0	0	0	0
14	2023-04-13	10:04:41	10:12:59	10:12:59:859	13	1	Reminder_NoThink_CSm	fixation	0	5	1500	0	0	1	1495	1	+	-13	0	0	0	0	0	0
14	2023-04-13	10:04:41	10:13:04	10:13:04:879	13	2	Reminder_NoThink_CSm	NoThink_CSm	0	5	0	0	0	0	5000	1	+	-16	4	Cue2.jpg	-16	4	Target2.jpg	-16
14	2023-04-13	10:04:41	10:13:08	10:13:08:910	13	3	Reminder_NoThink_CSm	valence	0	5	0	0	0	0	4004	1	I found these images to be...	-16	0	0	0	0	0	0
14	2023-04-13	10:04:41	10:13:14	10:13:14:660	13	4	Reminder_NoThink_CSm	expectancy	0	1000	0	0	80	0	5713	1	When you saw the <b>object-scene</b>,   to what <b>degree (0-100%)</b> did you expect the <b>unpleasant sound to occur</b>?	-12	0	0	0	0	0	0
14	2023-04-13	10:04:41	10:13:16	10:13:16:659	14	1	Reminder_NoThink_CSp	fixation	0	5	1000	0	0	1	995	1	+	-15	0	0	0	0	0	0
14	2023-04-13	10:04:41	10:13:21	10:13:21:677	14	2	Reminder_NoThink_CSp	NoThink_CSp	0	5	0	0	0	0	5000	1	+	-14	6	Cue10.jpg	-14	6	Target10.jpg	-14
14	2023-04-13	10:04:41	10:13:25	10:13:25:211	14	3	Reminder_NoThink_CSp	valence	0	5	0	0	10	0	3507	1	I found these images to be...	-16	0	0	0	0	0	0
14	2023-04-13	10:04:41	10:13:29	10:13:29:645	14	4	Reminder_NoThink_CSp	expectancy	0	1500	0	0	90	0	4397	1	When you saw the <b>object-scene</b>,   to what <b>degree (0-100%)</b> did you expect the <b>unpleasant sound to occur</b>?	-10	0	0	0	0	0	0
14	2023-04-13	10:04:41	10:13:31	10:13:31:644	15	1	Reminder_Think_CSp	fixation	0	5	500	0	0	1	495	1	+	-14	0	0	0	0	0	0
14	2023-04-13	10:04:41	10:13:36	10:13:36:662	15	2	Reminder_Think_CSp	Think_CSp	0	5	0	0	0	0	5000	1	+	-14	6	Cue7.jpg	-14	6	Target7.jpg	-14
14	2023-04-13	10:04:41	10:13:39	10:13:39:496	15	3	Reminder_Think_CSp	valence	0	5	0	0	0	0	2803	1	I found these images to be...	-16	0	0	0	0	0	0
14	2023-04-13	10:04:41	10:13:45	10:13:45:645	15	4	Reminder_Think_CSp	expectancy	0	1000	0	0	90	0	6112	1	When you saw the <b>object-scene</b>,   to what <b>degree (0-100%)</b> did you expect the <b>unpleasant sound to occur</b>?	-12	0	0	0	0	0	0
14	2023-04-13	10:04:41	10:13:48	10:13:48:144	16	1	Reminder_Think_CSm	fixation	0	5	1500	0	0	1	1495	1	+	-15	0	0	0	0	0	0
14	2023-04-13	10:04:41	10:13:53	10:13:53:165	16	2	Reminder_Think_CSm	Think_CSm	0	5	0	0	0	0	5000	1	+	-13	6	Cue5.jpg	-13	6	Target5.jpg	-13
14	2023-04-13	10:04:41	10:14:00	10:14:00:097	16	3	Reminder_Think_CSm	valence	0	5	0	0	10	0	6902	1	I found these images to be...	-16	0	0	0	0	0	0
14	2023-04-13	10:04:41	10:14:06	10:14:06:930	16	4	Reminder_Think_CSm	expectancy	0	500	0	0	90	0	5766	1	When you saw the <b>object-scene</b>,   to what <b>degree (0-100%)</b> did you expect the <b>unpleasant sound to occur</b>?	-12	0	0	0	0	0	0
14	2023-04-13	10:04:41	10:14:07	10:14:07:412	17	1	Reminder_Objects_CSp	fixation	0	5	1000	0	0	1	995	1	+	-14	0	0	0	0	0	0
14	2023-04-13	10:04:41	10:14:12	10:14:12:430	17	2	Reminder_Objects_CSp	Objects_CSp	0	5	0	0	0	0	5000	2	Object7.jpg	-15	0	0	0	0	0	0
14	2023-04-13	10:04:41	10:14:21	10:14:21:114	17	3	Reminder_Objects_CSp	expectancy_object	0	500	0	0	0	0	8634	1	When you saw the <b>object</b>,   to what <b>degree (0-100%)</b> did you expect the <b>unpleasant sound to occur</b>?	-16	0	0	0	0	0	0
14	2023-04-13	10:04:41	10:14:23	10:14:23:097	18	1	Reminder_NoThink_CSp	fixation	0	5	1500	0	0	1	1495	1	+	-15	0	0	0	0	0	0
14	2023-04-13	10:04:41	10:14:28	10:14:28:115	18	2	Reminder_NoThink_CSp	NoThink_CSp	0	5	0	0	0	0	5000	1	+	-16	4	Cue17.jpg	-16	4	Target17.jpg	-16
14	2023-04-13	10:04:41	10:14:32	10:14:32:515	18	3	Reminder_NoThink_CSp	valence	0	5	0	0	10	0	4373	1	I found these images to be...	-16	0	0	0	0	0	0
14	2023-04-13	10:04:41	10:14:36	10:14:36:949	18	4	Reminder_NoThink_CSp	expectancy	0	500	0	0	90	0	3397	1	When you saw the <b>object-scene</b>,   to what <b>degree (0-100%)</b> did you expect the <b>unpleasant sound to occur</b>?	-12	0	0	0	0	0	0
14	2023-04-13	10:04:41	10:14:37	10:14:37:948	19	1	Reminder_NoThink_CSp	fixation	0	5	500	0	0	1	495	1	+	-15	0	0	0	0	0	0
14	2023-04-13	10:04:41	10:14:42	10:14:42:968	19	2	Reminder_NoThink_CSp	NoThink_CSp	0	5	0	0	0	0	5000	1	+	-16	3	Cue1.jpg	-16	3	Target1.jpg	-16
14	2023-04-13	10:04:41	10:14:47	10:14:47:983	19	3	Reminder_NoThink_CSp	valence	0	5	0	0	0	0	4994	1	I found these images to be...	-16	0	0	0	0	0	0
14	2023-04-13	10:04:41	10:14:50	10:14:50:849	19	4	Reminder_NoThink_CSp	expectancy	0	1000	0	0	90	0	3824	1	When you saw the <b>object-scene</b>,   to what <b>degree (0-100%)</b> did you expect the <b>unpleasant sound to occur</b>?	-12	0	0	0	0	0	0
14	2023-04-13	10:04:41	10:14:53	10:14:53:348	20	1	Reminder_Baseline_CSp	fixation	0	5	1500	0	0	1	1495	1	+	-15	0	0	0	0	0	0
14	2023-04-13	10:04:41	10:14:58	10:14:58:366	20	2	Reminder_Baseline_CSp	Baseline_CSp	0	5	0	0	0	0	5000	1	+	-13	5	Cue36.jpg	-13	5	Target36.jpg	-13
14	2023-04-13	10:04:41	10:15:01	10:15:01:601	20	3	Reminder_Baseline_CSp	valence	0	5	0	0	0	0	3202	1	I found these images to be...	-16	0	0	0	0	0	0
14	2023-04-13	10:04:41	10:15:04	10:15:04:751	20	4	Reminder_Baseline_CSp	expectancy	0	1500	0	0	90	0	3111	1	When you saw the <b>object-scene</b>,   to what <b>degree (0-100%)</b> did you expect the <b>unpleasant sound to occur</b>?	-12	0	0	0	0	0	0
14	2023-04-13	10:04:41	10:15:07	10:15:07:250	21	1	PracticeItems_NoThink	fixation	0	5	1000	0	0	1	995	1	+	-15	0	0	0	0	0	0
14	2023-04-13	10:04:41	10:15:12	10:15:12:267	21	2	PracticeItems_NoThink	PracticeItems_NoThink	0	5	0	0	0	0	5000	1	+	-16	2	Cue40.jpg	-16	2	Target40.jpg	-16
14	2023-04-13	10:04:41	10:15:14	10:15:14:168	21	3	PracticeItems_NoThink	valence	0	5	0	0	50	0	1869	1	I found these images to be...	-16	0	0	0	0	0	0
14	2023-04-13	10:04:41	10:15:15	10:15:15:551	21	4	PracticeItems_NoThink	expectancy	0	1500	0	0	50	0	1345	1	When you saw the <b>object-scene</b>,   to what <b>degree (0-100%)</b> did you expect the <b>unpleasant sound to occur</b>?	-10	0	0	0	0	0	0
14	2023-04-13	10:04:41	10:15:17	10:15:17:550	22	1	PracticeItems_Think	fixation	0	5	500	0	0	1	495	1	+	-15	0	0	0	0	0	0
14	2023-04-13	10:04:41	10:15:22	10:15:22:568	22	2	PracticeItems_Think	PracticeItems_Think	0	5	0	0	0	0	5000	1	+	-16	2	Cue38.jpg	-16	2	Target38.jpg	-16
14	2023-04-13	10:04:41	10:15:25	10:15:25:352	22	3	PracticeItems_Think	valence	0	5	0	0	0	0	2761	1	I found these images to be...	-16	0	0	0	0	0	0
14	2023-04-13	10:04:41	10:15:30	10:15:30:569	22	4	PracticeItems_Think	expectancy	0	500	0	0	90	0	5175	1	When you saw the <b>object-scene</b>,   to what <b>degree (0-100%)</b> did you expect the <b>unpleasant sound to occur</b>?	-9	0	0	0	0	0	0
14	2023-04-13	10:04:41	10:15:31	10:15:31:568	23	1	Reminder_NoThink_CSm	fixation	0	5	500	0	0	1	495	1	+	-13	0	0	0	0	0	0
14	2023-04-13	10:04:41	10:15:36	10:15:36:588	23	2	Reminder_NoThink_CSm	NoThink_CSm	0	5	0	0	0	0	5000	1	+	-16	2	Cue30.jpg	-16	2	Target30.jpg	-16
14	2023-04-13	10:04:41	10:15:39	10:15:39:719	23	3	Reminder_NoThink_CSm	valence	0	5	0	0	0	0	3110	1	I found these images to be...	-16	0	0	0	0	0	0
14	2023-04-13	10:04:41	10:15:47	10:15:47:437	23	4	Reminder_NoThink_CSm	expectancy	0	1000	0	0	90	0	7672	1	When you saw the <b>object-scene</b>,   to what <b>degree (0-100%)</b> did you expect the <b>unpleasant sound to occur</b>?	-11	0	0	0	0	0	0
14	2023-04-13	10:04:41	10:15:50	10:15:50:935	24	1	Reminder_Think_CSm	fixation	0	5	1500	0	0	1	1495	1	+	-15	0	0	0	0	0	0
14	2023-04-13	10:04:41	10:15:55	10:15:55:953	24	2	Reminder_Think_CSm	Think_CSm	0	5	0	0	0	0	5000	1	+	-14	1	Cue27.jpg	-14	1	Target27.jpg	-14
14	2023-04-13	10:04:41	10:15:59	10:15:59:971	24	3	Reminder_Think_CSm	valence	0	5	0	0	10	0	3990	1	I found these images to be...	-16	0	0	0	0	0	0
14	2023-04-13	10:04:41	10:16:02	10:16:02:220	24	4	Reminder_Think_CSm	expectancy	0	500	0	0	90	0	3213	1	When you saw the <b>object-scene</b>,   to what <b>degree (0-100%)</b> did you expect the <b>unpleasant sound to occur</b>?	-12	0	0	0	0	0	0
14	2023-04-13	10:04:41	10:16:03	10:16:03:719	25	1	Reminder_Baseline_CSp	fixation	0	5	1000	0	0	1	995	1	+	-15	0	0	0	0	0	0
14	2023-04-13	10:04:41	10:16:08	10:16:08:738	25	2	Reminder_Baseline_CSp	Baseline_CSp	0	5	0	0	0	0	5000	1	+	-14	6	Cue21.jpg	-14	6	Target21.jpg	-14
14	2023-04-13	10:04:41	10:16:10	10:16:10:671	25	3	Reminder_Baseline_CSp	valence	0	5	0	0	50	0	1903	1	I found these images to be...	-16	0	0	0	0	0	0
14	2023-04-13	10:04:41	10:16:11	10:16:11:071	25	4	Reminder_Baseline_CSp	expectancy	0	1500	0	0	50	0	352	1	When you saw the <b>object-scene</b>,   to what <b>degree (0-100%)</b> did you expect the <b>unpleasant sound to occur</b>?	-10	0	0	0	0	0	0
14	2023-04-13	10:04:41	10:16:13	10:16:13:570	26	1	Reminder_Baseline_CSp	fixation	0	5	1000	0	0	1	995	1	+	-14	0	0	0	0	0	0
14	2023-04-13	10:04:41	10:16:18	10:16:18:588	26	2	Reminder_Baseline_CSp	Baseline_CSp	0	5	0	0	0	0	5000	1	+	-16	4	Cue3.jpg	-16	4	Target3.jpg	-16
14	2023-04-13	10:04:41	10:16:23	10:16:23:739	26	3	Reminder_Baseline_CSp	valence	0	5	0	0	0	0	5123	1	I found these images to be...	-16	0	0	0	0	0	0
14	2023-04-13	10:04:41	10:16:26	10:16:26:889	26	4	Reminder_Baseline_CSp	expectancy	0	1000	0	0	90	0	3109	1	When you saw the <b>object-scene</b>,   to what <b>degree (0-100%)</b> did you expect the <b>unpleasant sound to occur</b>?	-12	0	0	0	0	0	0
14	2023-04-13	10:04:41	10:16:28	10:16:28:388	27	1	Reminder_Objects_CSp	fixation	0	5	500	0	0	1	495	1	+	-10	0	0	0	0	0	0
14	2023-04-13	10:04:41	10:16:33	10:16:33:408	27	2	Reminder_Objects_CSp	Objects_CSp	0	5	0	0	0	0	5000	4	Object2.jpg	-16	0	0	0	0	0	0
14	2023-04-13	10:04:41	10:16:36	10:16:36:572	27	3	Reminder_Objects_CSp	expectancy_object	0	1000	0	0	0	0	3146	1	When you saw the <b>object</b>,   to what <b>degree (0-100%)</b> did you expect the <b>unpleasant sound to occur</b>?	-16	0	0	0	0	0	0
14	2023-04-13	10:04:41	10:16:39	10:16:39:071	28	1	Reminder_Baseline_CSp	fixation	0	5	1500	0	0	1	1495	1	+	-15	0	0	0	0	0	0
14	2023-04-13	10:04:41	10:16:44	10:16:44:089	28	2	Reminder_Baseline_CSp	Baseline_CSp	0	5	0	0	0	0	5000	1	+	-12	2	Cue4.jpg	-12	2	Target4.jpg	-12
14	2023-04-13	10:04:41	10:16:46	10:16:46:223	28	3	Reminder_Baseline_CSp	valence	0	5	0	0	50	0	2102	1	I found these images to be...	-16	0	0	0	0	0	0
14	2023-04-13	10:04:41	10:16:50	10:16:50:224	28	4	Reminder_Baseline_CSp	expectancy	0	500	0	0	90	0	3960	1	When you saw the <b>object-scene</b>,   to what <b>degree (0-100%)</b> did you expect the <b>unpleasant sound to occur</b>?	-12	0	0	0	0	0	0
14	2023-04-13	10:04:41	10:16:51	10:16:51:723	29	1	Reminder_Objects_CSm	fixation	0	5	1000	0	0	1	995	1	+	-14	0	0	0	0	0	0
14	2023-04-13	10:04:41	10:16:56	10:16:56:740	29	2	Reminder_Objects_CSm	Objects_CSm	0	5	0	0	0	0	5000	3	Object5.jpg	-16	0	0	0	0	0	0
14	2023-04-13	10:04:41	10:17:01	10:17:01:440	29	3	Reminder_Objects_CSm	expectancy_object	0	1500	0	0	0	0	4667	1	When you saw the <b>object</b>,   to what <b>degree (0-100%)</b> did you expect the <b>unpleasant sound to occur</b>?	-16	0	0	0	0	0	0
14	2023-04-13	10:04:41	10:17:03	10:17:03:439	30	1	Reminder_Think_CSm	fixation	0	5	500	0	0	1	495	1	+	-15	0	0	0	0	0	0
14	2023-04-13	10:04:41	10:17:08	10:17:08:457	30	2	Reminder_Think_CSm	Think_CSm	0	5	0	0	0	0	5000	1	+	-14	2	Cue19.jpg	-14	2	Target19.jpg	-14
14	2023-04-13	10:04:41	10:17:16	10:17:16:525	30	3	Reminder_Think_CSm	valence	0	5	0	0	0	0	8046	1	I found these images to be...	-16	0	0	0	0	0	0
14	2023-04-13	10:04:41	10:17:21	10:17:21:025	30	4	Reminder_Think_CSm	expectancy	0	1500	0	0	50	0	4458	1	When you saw the <b>object-scene</b>,   to what <b>degree (0-100%)</b> did you expect the <b>unpleasant sound to occur</b>?	-12	0	0	0	0	0	0
14	2023-04-13	10:04:41	10:17:24	10:17:24:027	31	1	Reminder_Baseline_CSm	fixation	0	5	1500	0	0	1	1495	1	+	-8	0	0	0	0	0	0
14	2023-04-13	10:04:41	10:17:29	10:17:29:045	31	2	Reminder_Baseline_CSm	Baseline_CSm	0	5	0	0	0	0	5000	1	+	-16	6	Cue6.jpg	-16	6	Target6.jpg	-16
14	2023-04-13	10:04:41	10:17:30	10:17:30:542	31	3	Reminder_Baseline_CSm	valence	0	5	0	0	50	0	1469	1	I found these images to be...	-16	0	0	0	0	0	0
14	2023-04-13	10:04:41	10:17:37	10:17:37:409	31	4	Reminder_Baseline_CSm	expectancy	0	1000	0	0	50	0	6793	1	When you saw the <b>object-scene</b>,   to what <b>degree (0-100%)</b> did you expect the <b>unpleasant sound to occur</b>?	0	0	0	0	0	0	0
14	2023-04-13	10:04:41	10:17:38	10:17:38:896	32	1	Reminder_NoThink_CSm	fixation	0	5	500	0	0	1	495	1	+	-9	0	0	0	0	0	0
14	2023-04-13	10:04:41	10:17:43	10:17:43:912	32	2	Reminder_NoThink_CSm	NoThink_CSm	0	5	0	0	0	0	5000	1	+	-16	5	Cue25.jpg	-16	5	Target25.jpg	-16
14	2023-04-13	10:04:41	10:17:48	10:17:48:027	32	3	Reminder_NoThink_CSm	valence	0	5	0	0	0	0	4090	1	I found these images to be...	-16	0	0	0	0	0	0
14	2023-04-13	10:04:41	10:17:52	10:17:52:178	32	4	Reminder_NoThink_CSm	expectancy	0	1500	0	0	90	0	4108	1	When you saw the <b>object-scene</b>,   to what <b>degree (0-100%)</b> did you expect the <b>unpleasant sound to occur</b>?	-12	0	0	0	0	0	0
14	2023-04-13	10:04:41	10:17:55	10:17:55:176	33	1	Reminder_Objects_CSp	fixation	0	5	1500	0	0	1	1495	1	+	-15	0	0	0	0	0	0
14	2023-04-13	10:04:41	10:18:00	10:18:00:194	33	2	Reminder_Objects_CSp	Objects_CSp	0	5	0	0	0	0	5000	3	Object8.jpg	-14	0	0	0	0	0	0
14	2023-04-13	10:04:41	10:18:07	10:18:07:512	33	3	Reminder_Objects_CSp	expectancy_object	0	500	0	0	0	0	7293	1	When you saw the <b>object</b>,   to what <b>degree (0-100%)</b> did you expect the <b>unpleasant sound to occur</b>?	-16	0	0	0	0	0	0
14	2023-04-13	10:04:41	10:18:09	10:18:09:010	34	1	Reminder_Baseline_CSp	fixation	0	5	1000	0	0	1	995	1	+	-15	0	0	0	0	0	0
14	2023-04-13	10:04:41	10:18:14	10:18:14:029	34	2	Reminder_Baseline_CSp	Baseline_CSp	0	5	0	0	0	0	5000	1	+	-14	1	Cue8.jpg	-14	1	Target8.jpg	-14
14	2023-04-13	10:04:41	10:18:15	10:18:15:412	34	3	Reminder_Baseline_CSp	valence	0	5	0	0	50	0	1331	1	I found these images to be...	-16	0	0	0	0	0	0
14	2023-04-13	10:04:41	10:18:20	10:18:20:779	34	4	Reminder_Baseline_CSp	expectancy	0	500	0	0	70	0	5300	1	When you saw the <b>object-scene</b>,   to what <b>degree (0-100%)</b> did you expect the <b>unpleasant sound to occur</b>?	-8	0	0	0	0	0	0
14	2023-04-13	10:04:41	10:18:22	10:18:22:262	35	1	Reminder_Think_CSp	fixation	0	5	1000	0	0	1	995	1	+	-15	0	0	0	0	0	0
14	2023-04-13	10:04:41	10:18:27	10:18:27:279	35	2	Reminder_Think_CSp	Think_CSp	0	5	0	0	0	0	5000	1	+	-16	3	Cue18.jpg	-16	3	Target18.jpg	-16
14	2023-04-13	10:04:41	10:18:31	10:18:31:630	35	3	Reminder_Think_CSp	valence	0	5	0	0	0	0	4328	1	I found these images to be...	-16	0	0	0	0	0	0
14	2023-04-13	10:04:41	10:18:38	10:18:38:880	35	4	Reminder_Think_CSp	expectancy	0	1000	0	0	80	0	7201	1	When you saw the <b>object-scene</b>,   to what <b>degree (0-100%)</b> did you expect the <b>unpleasant sound to occur</b>?	-12	0	0	0	0	0	0
14	2023-04-13	10:04:41	10:18:40	10:18:40:379	36	1	Reminder_Baseline_CSp	fixation	0	5	500	0	0	1	495	1	+	-15	0	0	0	0	0	0
14	2023-04-13	10:04:41	10:18:45	10:18:45:397	36	2	Reminder_Baseline_CSp	Baseline_CSp	0	5	0	0	0	0	5000	1	+	-16	3	Cue29.jpg	-16	3	Target29.jpg	-16
14	2023-04-13	10:04:41	10:18:49	10:18:49:464	36	3	Reminder_Baseline_CSp	valence	0	5	0	0	10	0	4043	1	I found these images to be...	-16	0	0	0	0	0	0
14	2023-04-13	10:04:41	10:18:52	10:18:52:398	36	4	Reminder_Baseline_CSp	expectancy	0	1500	0	0	90	0	2887	1	When you saw the <b>object-scene</b>,   to what <b>degree (0-100%)</b> did you expect the <b>unpleasant sound to occur</b>?	-12	0	0	0	0	0	0
14	2023-04-13	10:04:41	10:18:55	10:18:55:396	37	1	Reminder_Baseline_CSm	fixation	0	5	1500	0	0	1	1495	1	+	-15	0	0	0	0	0	0
14	2023-04-13	10:04:41	10:19:00	10:19:00:415	37	2	Reminder_Baseline_CSm	Baseline_CSm	0	5	0	0	0	0	5000	1	+	-14	2	Cue28.jpg	-14	2	Target28.jpg	-14
14	2023-04-13	10:04:41	10:19:04	10:19:04:098	37	3	Reminder_Baseline_CSm	valence	0	5	0	0	50	0	3657	1	I found these images to be...	-16	0	0	0	0	0	0
14	2023-04-13	10:04:41	10:19:08	10:19:08:199	37	4	Reminder_Baseline_CSm	expectancy	0	500	0	0	50	0	4061	1	When you saw the <b>object-scene</b>,   to what <b>degree (0-100%)</b> did you expect the <b>unpleasant sound to occur</b>?	-12	0	0	0	0	0	0
14	2023-04-13	10:04:41	10:19:10	10:19:10:197	38	1	Reminder_Baseline_CSm	fixation	0	5	1500	0	0	1	1495	1	+	-15	0	0	0	0	0	0
14	2023-04-13	10:04:41	10:19:15	10:19:15:215	38	2	Reminder_Baseline_CSm	Baseline_CSm	0	5	0	0	0	0	5000	1	+	-13	5	Cue15.jpg	-13	5	Target15.jpg	-13
14	2023-04-13	10:04:41	10:19:18	10:19:18:799	38	3	Reminder_Baseline_CSm	valence	0	5	0	0	10	0	3552	1	I found these images to be...	-16	0	0	0	0	0	0
14	2023-04-13	10:04:41	10:19:25	10:19:25:333	38	4	Reminder_Baseline_CSm	expectancy	0	1000	0	0	90	0	6496	1	When you saw the <b>object-scene</b>,   to what <b>degree (0-100%)</b> did you expect the <b>unpleasant sound to occur</b>?	-12	0	0	0	0	0	0
14	2023-04-13	10:04:41	10:19:26	10:19:26:832	39	1	PracticeItems_NoThink	fixation	0	5	500	0	0	1	495	1	+	-15	0	0	0	0	0	0
14	2023-04-13	10:04:41	10:19:31	10:19:31:850	39	2	PracticeItems_NoThink	PracticeItems_NoThink	0	5	0	0	0	0	5000	1	+	-14	1	Cue39.jpg	-14	1	Target39.jpg	-14
14	2023-04-13	10:04:41	10:19:34	10:19:34:800	39	3	PracticeItems_NoThink	valence	0	5	0	0	20	0	2926	1	I found these images to be...	-16	0	0	0	0	0	0
14	2023-04-13	10:04:41	10:19:38	10:19:38:600	39	4	PracticeItems_NoThink	expectancy	0	1500	0	0	90	0	3759	1	When you saw the <b>object-scene</b>,   to what <b>degree (0-100%)</b> did you expect the <b>unpleasant sound to occur</b>?	-12	0	0	0	0	0	0
14	2023-04-13	10:04:41	10:19:41	10:19:41:099	40	1	Reminder_Think_CSp	fixation	0	5	1000	0	0	1	995	1	+	-15	0	0	0	0	0	0
14	2023-04-13	10:04:41	10:19:46	10:19:46:117	40	2	Reminder_Think_CSp	Think_CSp	0	5	0	0	0	0	5000	1	+	-14	1	Cue35.jpg	-14	1	Target35.jpg	-14
14	2023-04-13	10:04:41	10:19:47	10:19:47:918	40	3	Reminder_Think_CSp	valence	0	5	0	0	50	0	1770	1	I found these images to be...	-16	0	0	0	0	0	0
14	2023-04-13	10:04:41	10:19:50	10:19:50:018	40	4	Reminder_Think_CSp	expectancy	0	1000	0	0	50	0	2057	1	When you saw the <b>object-scene</b>,   to what <b>degree (0-100%)</b> did you expect the <b>unpleasant sound to occur</b>?	-12	0	0	0	0	0	0
14	2023-04-13	10:04:41	10:19:52	10:19:52:517	41	1	Reminder_Think_CSm	fixation	0	5	1500	0	0	1	1495	1	+	-15	0	0	0	0	0	0
14	2023-04-13	10:04:41	10:19:57	10:19:57:537	41	2	Reminder_Think_CSm	Think_CSm	0	5	0	0	0	0	5000	1	+	-16	5	Cue34.jpg	-16	5	Target34.jpg	-16
14	2023-04-13	10:04:41	10:20:04	10:20:04:119	41	3	Reminder_Think_CSm	valence	0	5	0	0	10	0	6553	1	I found these images to be...	-16	0	0	0	0	0	0
14	2023-04-13	10:04:41	10:20:08	10:20:08:853	41	4	Reminder_Think_CSm	expectancy	0	500	0	0	70	0	4697	1	When you saw the <b>object-scene</b>,   to what <b>degree (0-100%)</b> did you expect the <b>unpleasant sound to occur</b>?	-12	0	0	0	0	0	0
14	2023-04-13	10:04:41	10:20:10	10:20:10:352	42	1	Reminder_NoThink_CSp	fixation	0	5	1000	0	0	1	995	1	+	-15	0	0	0	0	0	0
14	2023-04-13	10:04:41	10:20:15	10:20:15:369	42	2	Reminder_NoThink_CSp	NoThink_CSp	0	5	0	0	0	0	5000	1	+	-16	2	Cue11.jpg	-16	2	Target11.jpg	-16
14	2023-04-13	10:04:41	10:20:16	10:20:16:619	42	3	Reminder_NoThink_CSp	valence	0	5	0	0	50	0	1198	1	I found these images to be...	-16	0	0	0	0	0	0
14	2023-04-13	10:04:41	10:20:17	10:20:17:169	42	4	Reminder_NoThink_CSp	expectancy	0	1500	0	0	50	0	484	1	When you saw the <b>object-scene</b>,   to what <b>degree (0-100%)</b> did you expect the <b>unpleasant sound to occur</b>?	-12	0	0	0	0	0	0
14	2023-04-13	10:04:41	10:20:19	10:20:19:151	43	1	Reminder_Objects_CSm	fixation	0	5	500	0	0	1	495	1	+	-15	0	0	0	0	0	0
14	2023-04-13	10:04:41	10:20:24	10:20:24:169	43	2	Reminder_Objects_CSm	Objects_CSm	0	5	0	0	0	0	5000	1	Object3.jpg	-14	0	0	0	0	0	0
14	2023-04-13	10:04:41	10:20:30	10:20:30:520	43	3	Reminder_Objects_CSm	expectancy_object	0	1500	0	0	0	0	6318	1	When you saw the <b>object</b>,   to what <b>degree (0-100%)</b> did you expect the <b>unpleasant sound to occur</b>?	-16	0	0	0	0	0	0
14	2023-04-13	10:04:41	10:20:33	10:20:33:519	44	1	Reminder_Think_CSp	fixation	0	5	1500	0	0	1	1495	1	+	-14	0	0	0	0	0	0
14	2023-04-13	10:04:41	10:20:38	10:20:38:537	44	2	Reminder_Think_CSp	Think_CSp	0	5	0	0	0	0	5000	1	+	-13	2	Cue33.jpg	-13	2	Target33.jpg	-13
14	2023-04-13	10:04:41	10:20:45	10:20:45:037	44	3	Reminder_Think_CSp	valence	0	5	0	0	10	0	6446	1	I found these images to be...	-16	0	0	0	0	0	0
14	2023-04-13	10:04:41	10:20:49	10:20:49:971	44	4	Reminder_Think_CSp	expectancy	0	1000	0	0	90	0	3865	1	When you saw the <b>object-scene</b>,   to what <b>degree (0-100%)</b> did you expect the <b>unpleasant sound to occur</b>?	-12	0	0	0	0	0	0
14	2023-04-13	10:04:41	10:20:50	10:20:50:454	45	1	Reminder_Think_CSm	fixation	0	5	500	0	0	1	495	1	+	-15	0	0	0	0	0	0
14	2023-04-13	10:04:41	10:20:55	10:20:55:471	45	2	Reminder_Think_CSm	Think_CSm	0	5	0	0	0	0	5000	1	+	-14	3	Cue31.jpg	-14	3	Target31.jpg	-14
14	2023-04-13	10:04:41	10:20:58	10:20:58:239	45	3	Reminder_Think_CSm	valence	0	5	0	0	0	0	2736	1	I found these images to be...	-16	0	0	0	0	0	0
14	2023-04-13	10:04:41	10:21:00	10:21:00:821	45	4	Reminder_Think_CSm	expectancy	0	500	0	0	100	0	2537	1	When you saw the <b>object-scene</b>,   to what <b>degree (0-100%)</b> did you expect the <b>unpleasant sound to occur</b>?	-12	0	0	0	0	0	0
14	2023-04-13	10:04:41	10:21:02	10:21:02:321	46	1	Reminder_Baseline_CSm	fixation	0	5	1000	0	0	1	995	1	+	-15	0	0	0	0	0	0
14	2023-04-13	10:04:41	10:21:07	10:21:07:339	46	2	Reminder_Baseline_CSm	Baseline_CSm	0	5	0	0	0	0	5000	1	+	-13	4	Cue23.jpg	-13	4	Target23.jpg	-13
14	2023-04-13	10:04:41	10:21:10	10:21:10:156	46	3	Reminder_Baseline_CSm	valence	0	5	0	0	0	0	2788	1	I found these images to be...	-16	0	0	0	0	0	0
14	2023-04-13	10:04:41	10:21:13	10:21:13:106	46	4	Reminder_Baseline_CSm	expectancy	0	1500	0	0	100	0	2907	1	When you saw the <b>object-scene</b>,   to what <b>degree (0-100%)</b> did you expect the <b>unpleasant sound to occur</b>?	-12	0	0	0	0	0	0
14	2023-04-13	10:04:41	10:21:16	10:21:16:105	47	1	Reminder_Baseline_CSm	fixation	0	5	1500	0	0	1	1495	1	+	-15	0	0	0	0	0	0
14	2023-04-13	10:04:41	10:21:21	10:21:21:123	47	2	Reminder_Baseline_CSm	Baseline_CSm	0	5	0	0	0	0	5000	1	+	-14	1	Cue12.jpg	-14	1	Target12.jpg	-14
14	2023-04-13	10:04:41	10:21:22	10:21:22:174	47	3	Reminder_Baseline_CSm	valence	0	5	0	0	50	0	1021	1	I found these images to be...	-16	0	0	0	0	0	0
14	2023-04-13	10:04:41	10:21:23	10:21:23:473	47	4	Reminder_Baseline_CSm	expectancy	0	500	0	0	50	0	1234	1	When you saw the <b>object-scene</b>,   to what <b>degree (0-100%)</b> did you expect the <b>unpleasant sound to occur</b>?	-12	0	0	0	0	0	0
14	2023-04-13	10:04:41	10:21:25	10:21:25:956	48	1	Reminder_NoThink_CSm	fixation	0	5	1000	0	0	1	995	1	+	-14	0	0	0	0	0	0
14	2023-04-13	10:04:41	10:21:30	10:21:30:973	48	2	Reminder_NoThink_CSm	NoThink_CSm	0	5	0	0	0	0	5000	1	+	-13	3	Cue14.jpg	-13	3	Target14.jpg	-13
14	2023-04-13	10:04:41	10:21:34	10:21:34:524	48	3	Reminder_NoThink_CSm	valence	0	5	0	0	0	0	4522	1	I found these images to be...	-16	0	0	0	0	0	0
14	2023-04-13	10:04:41	10:21:40	10:21:40:307	48	4	Reminder_NoThink_CSm	expectancy	0	1000	0	0	100	0	5747	1	When you saw the <b>object-scene</b>,   to what <b>degree (0-100%)</b> did you expect the <b>unpleasant sound to occur</b>?	-12	0	0	0	0	0	0
14	2023-04-13	10:04:41	10:21:41	10:21:41:806	49	1	Reminder_Baseline_CSm	fixation	0	5	500	0	0	1	495	1	+	-15	0	0	0	0	0	0
14	2023-04-13	10:04:41	10:21:46	10:21:46:824	49	2	Reminder_Baseline_CSm	Baseline_CSm	0	5	0	0	0	0	5000	1	+	-13	3	Cue26.jpg	-13	3	Target26.jpg	-13
14	2023-04-13	10:04:41	10:21:48	10:21:48:542	49	3	Reminder_Baseline_CSm	valence	0	5	0	0	50	0	1687	1	I found these images to be...	-16	0	0	0	0	0	0
14	2023-04-13	10:04:41	10:21:49	10:21:49:792	49	4	Reminder_Baseline_CSm	expectancy	0	1500	0	0	50	0	1209	1	When you saw the <b>object-scene</b>,   to what <b>degree (0-100%)</b> did you expect the <b>unpleasant sound to occur</b>?	-12	0	0	0	0	0	0
14	2023-04-13	10:04:41	10:28:41	10:28:41:507	2	1	Practice_NoThink	fixation	0	5	1500	0	0	1	1495	1	+	-8	0	0	0	0	0	0
14	2023-04-13	10:04:41	10:28:42	10:28:42:518	2	2	Practice_NoThink	NoThink	0	5	0	0	0	0	1000	1	DON'T THINK	-16	0	0	0	0	0	0
14	2023-04-13	10:04:41	10:28:47	10:28:47:535	2	3	Practice_NoThink	NoThinkCue	0	5	0	0	0	1	5000	2	Cue40.jpg	-16	0	0	0	0	0	0
14	2023-04-13	10:04:41	10:28:48	10:28:48:059	2	4	Practice_NoThink	Intrusion	0	1500	3000	0	0	0	1500	1	How <b>often</b> did you <b>think</b> about the <b>scene</b>?   <center><br><b>NEVER (1)    BRIEFLY (2)   OFTEN (3) </b>	-14	0	0	0	0	0	0
14	2023-04-13	10:04:41	10:28:50	10:28:50:039	3	1	Practice_NoThink	fixation	0	5	500	0	0	1	495	1	+	-9	0	0	0	0	0	0
14	2023-04-13	10:04:41	10:28:51	10:28:51:052	3	2	Practice_NoThink	NoThink	0	5	0	0	0	0	1000	1	DON'T THINK	-16	0	0	0	0	0	0
14	2023-04-13	10:04:41	10:28:56	10:28:56:069	3	3	Practice_NoThink	NoThinkCue	0	5	0	0	0	1	5000	1	Cue39.jpg	-16	0	0	0	0	0	0
14	2023-04-13	10:04:41	10:28:58	10:28:58:897	3	4	Practice_NoThink	Intrusion	0	1000	3000	0	81	1	1811	1	How <b>often</b> did you <b>think</b> about the <b>scene</b>?   <center><br><b>NEVER (1)    BRIEFLY (2)   OFTEN (3) </b>	-16	0	0	0	0	0	0
14	2023-04-13	10:04:41	10:29:00	10:29:00:073	4	1	Practice_Think	fixation	0	5	1000	0	0	1	995	1	+	-9	0	0	0	0	0	0
14	2023-04-13	10:04:41	10:29:01	10:29:01:086	4	2	Practice_Think	Think	0	5	0	0	0	0	1000	1	THINK	-16	0	0	0	0	0	0
14	2023-04-13	10:04:41	10:29:06	10:29:06:103	4	3	Practice_Think	ThinkCue	0	5	0	0	0	1	5000	1	Cue37.jpg	-16	0	0	0	0	0	0
14	2023-04-13	10:04:41	10:29:08	10:29:08:177	4	4	Practice_Think	Intrusion	0	500	3000	0	81	1	1056	1	How <b>often</b> did you <b>think</b> about the <b>scene</b>?   <center><br><b>NEVER (1)    BRIEFLY (2)   OFTEN (3) </b>	-16	0	0	0	0	0	0
14	2023-04-13	10:04:41	10:29:10	10:29:10:607	5	1	Practice_Think	fixation	0	5	500	0	0	1	495	1	+	-9	0	0	0	0	0	0
14	2023-04-13	10:04:41	10:29:11	10:29:11:620	5	2	Practice_Think	Think	0	5	0	0	0	0	1000	1	THINK	-16	0	0	0	0	0	0
14	2023-04-13	10:04:41	10:29:16	10:29:16:637	5	3	Practice_Think	ThinkCue	0	5	0	0	0	1	5000	2	Cue38.jpg	-16	0	0	0	0	0	0
14	2023-04-13	10:04:41	10:29:17	10:29:17:033	5	4	Practice_Think	Intrusion	0	500	3000	0	81	1	1378	1	How <b>often</b> did you <b>think</b> about the <b>scene</b>?   <center><br><b>NEVER (1)    BRIEFLY (2)   OFTEN (3) </b>	-16	0	0	0	0	0	0
14	2023-04-13	10:04:41	10:34:24	10:34:24:849	6	1	Practice_Betweenblocks1	Practice_Betweenblocks1	0	5	0	0	57	1	305178	1	<center><br><br><br><br>This is the end of the first practice round. <br><br>There will be 2 more practice rounds.  <br><br> Please await further instruction from the experimenter.	-16	0	0	0	0	0	0
14	2023-04-13	10:04:41	10:34:25	10:34:25:851	7	1	Practice_Think	fixation	0	5	1000	0	0	1	995	1	+	-9	0	0	0	0	0	0
14	2023-04-13	10:04:41	10:34:26	10:34:26:872	7	2	Practice_Think	Think	0	5	0	0	0	0	1000	1	THINK	-9	0	0	0	0	0	0
14	2023-04-13	10:04:41	10:34:31	10:34:31:889	7	3	Practice_Think	ThinkCue	0	5	0	0	0	1	5000	1	Cue37.jpg	-16	0	0	0	0	0	0
14	2023-04-13	10:04:41	10:34:32	10:34:32:481	7	4	Practice_Think	Intrusion	0	1500	3000	0	81	1	575	1	How <b>often</b> did you <b>think</b> about the <b>scene</b>?   <center><br><b>NEVER (1)    BRIEFLY (2)   OFTEN (3) </b>	-16	0	0	0	0	0	0
14	2023-04-13	10:04:41	10:34:36	10:34:36:401	8	1	Practice_Think	fixation	0	5	1500	0	0	1	1495	1	+	-16	0	0	0	0	0	0
14	2023-04-13	10:04:41	10:34:37	10:34:37:423	8	2	Practice_Think	Think	0	5	0	0	0	0	1000	1	THINK	-9	0	0	0	0	0	0
14	2023-04-13	10:04:41	10:34:42	10:34:42:440	8	3	Practice_Think	ThinkCue	0	5	0	0	0	1	5000	2	Cue38.jpg	-16	0	0	0	0	0	0
14	2023-04-13	10:04:41	10:34:44	10:34:44:369	8	4	Practice_Think	Intrusion	0	1000	3000	0	81	1	1912	1	How <b>often</b> did you <b>think</b> about the <b>scene</b>?   <center><br><b>NEVER (1)    BRIEFLY (2)   OFTEN (3) </b>	-16	0	0	0	0	0	0
14	2023-04-13	10:04:41	10:34:46	10:34:46:944	9	1	Practice_NoThink	fixation	0	5	1500	0	0	1	1495	1	+	-16	0	0	0	0	0	0
14	2023-04-13	10:04:41	10:34:47	10:34:47:957	9	2	Practice_NoThink	NoThink	0	5	0	0	0	0	1000	1	DON'T THINK	-16	0	0	0	0	0	0
14	2023-04-13	10:04:41	10:34:52	10:34:52:974	9	3	Practice_NoThink	NoThinkCue	0	5	0	0	0	1	5000	2	Cue40.jpg	-16	0	0	0	0	0	0
14	2023-04-13	10:04:41	10:34:53	10:34:53:033	9	4	Practice_NoThink	Intrusion	0	1500	3000	0	81	1	1042	1	How <b>often</b> did you <b>think</b> about the <b>scene</b>?   <center><br><b>NEVER (1)    BRIEFLY (2)   OFTEN (3) </b>	-16	0	0	0	0	0	0
14	2023-04-13	10:04:41	10:34:56	10:34:56:478	10	1	Practice_NoThink	fixation	0	5	500	0	0	1	495	1	+	-16	0	0	0	0	0	0
14	2023-04-13	10:04:41	10:34:57	10:34:57:491	10	2	Practice_NoThink	NoThink	0	5	0	0	0	0	1000	1	DON'T THINK	-16	0	0	0	0	0	0
14	2023-04-13	10:04:41	10:35:02	10:35:02:507	10	3	Practice_NoThink	NoThinkCue	0	5	0	0	0	1	5000	1	Cue39.jpg	-16	0	0	0	0	0	0
14	2023-04-13	10:04:41	10:35:02	10:35:02:073	10	4	Practice_NoThink	Intrusion	0	1000	3000	0	81	1	548	1	How <b>often</b> did you <b>think</b> about the <b>scene</b>?   <center><br><b>NEVER (1)    BRIEFLY (2)   OFTEN (3) </b>	-16	0	0	0	0	0	0
14	2023-04-13	10:04:41	10:36:06	10:36:06:056	11	1	Practice_Betweenblocks2	Practice_Betweenblocks2	0	5	0	0	57	1	61515	1	<center><br><br><br><br>This is the end of the second practice round. <br><br>There will be 1 more practice round.  <br><br> Please await further instruction from the experimenter.	-16	0	0	0	0	0	0
14	2023-04-13	10:04:41	10:36:07	10:36:07:058	12	1	Practice_NoThink	fixation	0	5	1000	0	0	1	995	1	+	-8	0	0	0	0	0	0
14	2023-04-13	10:04:41	10:36:08	10:36:08:078	12	2	Practice_NoThink	NoThink	0	5	0	0	0	0	1000	1	DON'T THINK	-8	0	0	0	0	0	0
14	2023-04-13	10:04:41	10:36:13	10:36:13:095	12	3	Practice_NoThink	NoThinkCue	0	5	0	0	0	1	5000	2	Cue40.jpg	-16	0	0	0	0	0	0
14	2023-04-13	10:04:41	10:36:15	10:36:15:777	12	4	Practice_NoThink	Intrusion	0	500	3000	0	81	1	1664	1	How <b>often</b> did you <b>think</b> about the <b>scene</b>?   <center><br><b>NEVER (1)    BRIEFLY (2)   OFTEN (3) </b>	-16	0	0	0	0	0	0
14	2023-04-13	10:04:41	10:36:17	10:36:17:099	13	1	Practice_Think	fixation	0	5	1000	0	0	1	995	1	+	-9	0	0	0	0	0	0
14	2023-04-13	10:04:41	10:36:18	10:36:18:112	13	2	Practice_Think	Think	0	5	0	0	0	0	1000	1	THINK	-16	0	0	0	0	0	0
14	2023-04-13	10:04:41	10:36:24	10:36:24:129	13	3	Practice_Think	ThinkCue	0	5	0	0	0	1	5000	1	Cue37.jpg	-16	0	0	0	0	0	0
14	2023-04-13	10:04:41	10:36:24	10:36:24:673	13	4	Practice_Think	Intrusion	0	500	3000	0	81	1	527	1	How <b>often</b> did you <b>think</b> about the <b>scene</b>?   <center><br><b>NEVER (1)    BRIEFLY (2)   OFTEN (3) </b>	-16	0	0	0	0	0	0
14	2023-04-13	10:04:41	10:36:28	10:36:28:633	14	1	Practice_Think	fixation	0	5	1500	0	0	1	1495	1	+	-9	0	0	0	0	0	0
14	2023-04-13	10:04:41	10:36:29	10:36:29:646	14	2	Practice_Think	Think	0	5	0	0	0	0	1000	1	THINK	-16	0	0	0	0	0	0
14	2023-04-13	10:04:41	10:36:34	10:36:34:663	14	3	Practice_Think	ThinkCue	0	5	0	0	0	1	5000	2	Cue38.jpg	-16	0	0	0	0	0	0
14	2023-04-13	10:04:41	10:36:35	10:36:35:249	14	4	Practice_Think	Intrusion	0	1500	3000	0	81	1	569	1	How <b>often</b> did you <b>think</b> about the <b>scene</b>?   <center><br><b>NEVER (1)    BRIEFLY (2)   OFTEN (3) </b>	-16	0	0	0	0	0	0
14	2023-04-13	10:04:41	10:36:38	10:36:38:166	15	1	Practice_NoThink	fixation	0	5	500	0	0	1	495	1	+	-8	0	0	0	0	0	0
14	2023-04-13	10:04:41	10:36:39	10:36:39:180	15	2	Practice_NoThink	NoThink	0	5	0	0	0	0	1000	1	DON'T THINK	-16	0	0	0	0	0	0
14	2023-04-13	10:04:41	10:36:44	10:36:44:197	15	3	Practice_NoThink	NoThinkCue	0	5	0	0	0	1	5000	1	Cue39.jpg	-16	0	0	0	0	0	0
14	2023-04-13	10:04:41	10:36:45	10:36:45:217	15	4	Practice_NoThink	Intrusion	0	1000	3000	0	80	1	1002	1	How <b>often</b> did you <b>think</b> about the <b>scene</b>?   <center><br><b>NEVER (1)    BRIEFLY (2)   OFTEN (3) </b>	-16	0	0	0	0	0	0
14	2023-04-13	10:04:41	10:37:30	10:37:30:288	1	1	countdown	instructions	0	5	0	0	57	0	29890	1	<center><br><br> <b>WATCH CALLIBRATION</b>.                <br><br><br><br>In a couple of seconds a <b>countdown</b> will start that counts down from 3 to 1,       <br><br>after which the screen will show the instruction <b>PRESS BUTTON</b>.       <br><br><b>As soon as you see that screen</b>, you must shortly press the button on your watch.       <br><br> <br><br> Press SPACE  to continue.	-5	0	0	0	0	0	0
14	2023-04-13	10:04:41	10:37:31	10:37:31:299	1	2	countdown	countdown_3	0	5	0	0	0	0	1000	1	3	-16	0	0	0	0	0	0
14	2023-04-13	10:04:41	10:37:32	10:37:32:317	1	3	countdown	countdown_2	0	5	0	0	0	0	1000	1	2	-16	0	0	0	0	0	0
14	2023-04-13	10:04:41	10:37:33	10:37:33:333	1	4	countdown	countdown_1	0	5	0	0	0	0	1000	1	1	-16	0	0	0	0	0	0
14	2023-04-13	10:04:41	10:37:34	10:37:34:350	1	5	countdown	press_button	0	5	0	0	0	0	1000	1	PRESS BUTTON NOW	-16	0	0	0	0	0	0
14	2023-04-13	10:04:41	10:37:44	10:37:44:501	2	1	TNT_Think_CSm	fixation	0	5	1500	0	0	1	1495	1	+	-9	0	0	0	0	0	0
14	2023-04-13	10:04:41	10:37:45	10:37:45:519	2	2	TNT_Think_CSm	Think	0	5	0	0	0	0	1000	1	THINK	-16	0	0	0	0	0	0
14	2023-04-13	10:04:41	10:37:50	10:37:50:536	2	3	TNT_Think_CSm	TNT_Think_CSm	0	5	0	0	0	0	5000	3	Cue31.jpg	-16	0	0	0	0	0	0
14	2023-04-13	10:04:41	10:37:51	10:37:51:980	2	4	TNT_Think_CSm	Intrusion	0	500	3000	0	81	1	1427	1	How <b>often</b> did you <b>think</b> about the <b>scene</b>?   <center><br><b>NEVER (1)    BRIEFLY (2)   OFTEN (3) </b>	-16	0	0	0	0	0	0
14	2023-04-13	10:04:41	10:37:54	10:37:54:540	3	1	TNT_Object_CSm	fixation	0	5	1000	0	0	1	995	1	+	-9	0	0	0	0	0	0
14	2023-04-13	10:04:41	10:37:55	10:37:55:553	3	2	TNT_Object_CSm	Passive	0	5	0	0	0	0	1000	1	VIEW	-16	0	0	0	0	0	0
14	2023-04-13	10:04:41	10:38:00	10:38:00:570	3	3	TNT_Object_CSm	TNT_Object_CSm	0	1000	0	0	0	0	5000	1	Object3.jpg	-16	0	0	0	0	0	0
14	2023-04-13	10:04:41	10:38:01	10:38:01:070	4	1	TNT_Think_CSm	fixation	0	5	500	0	0	1	495	1	+	-9	0	0	0	0	0	0
14	2023-04-13	10:04:41	10:38:02	10:38:02:086	4	2	TNT_Think_CSm	Think	0	5	0	0	0	0	1000	1	THINK	-16	0	0	0	0	0	0
14	2023-04-13	10:04:41	10:38:07	10:38:07:104	4	3	TNT_Think_CSm	TNT_Think_CSm	0	5	0	0	0	0	5000	4	Cue24.jpg	-16	0	0	0	0	0	0
14	2023-04-13	10:04:41	10:38:08	10:38:08:116	4	4	TNT_Think_CSm	Intrusion	0	1500	3000	0	81	1	995	1	How <b>often</b> did you <b>think</b> about the <b>scene</b>?   <center><br><b>NEVER (1)    BRIEFLY (2)   OFTEN (3) </b>	-16	0	0	0	0	0	0
14	2023-04-13	10:04:41	10:38:11	10:38:11:608	5	1	TNT_Think_CSp	fixation	0	5	500	0	0	1	495	1	+	-16	0	0	0	0	0	0
14	2023-04-13	10:04:41	10:38:12	10:38:12:621	5	2	TNT_Think_CSp	Think	0	5	0	0	0	0	1000	1	THINK	-16	0	0	0	0	0	0
14	2023-04-13	10:04:41	10:38:17	10:38:17:637	5	3	TNT_Think_CSp	TNT_Think_CSp	0	5	0	0	0	0	5000	6	Cue7.jpg	-16	0	0	0	0	0	0
14	2023-04-13	10:04:41	10:38:18	10:38:18:732	5	4	TNT_Think_CSp	Intrusion	0	1000	3000	0	81	1	1077	1	How <b>often</b> did you <b>think</b> about the <b>scene</b>?   <center><br><b>NEVER (1)    BRIEFLY (2)   OFTEN (3) </b>	-16	0	0	0	0	0	0
14	2023-04-13	10:04:41	10:38:21	10:38:21:641	6	1	TNT_NoThink_CSm	fixation	0	5	1000	0	0	1	995	1	+	-9	0	0	0	0	0	0
14	2023-04-13	10:04:41	10:38:22	10:38:22:655	6	2	TNT_NoThink_CSm	NoThink	0	5	0	0	0	0	1000	1	DON'T THINK	-16	0	0	0	0	0	0
14	2023-04-13	10:04:41	10:38:27	10:38:27:671	6	3	TNT_NoThink_CSm	TNT_NoThink_CSm	0	5	0	0	0	0	5000	5	Cue25.jpg	-16	0	0	0	0	0	0
14	2023-04-13	10:04:41	10:38:27	10:38:27:092	6	4	TNT_NoThink_CSm	Intrusion	0	500	3000	0	81	1	403	1	How <b>often</b> did you <b>think</b> about the <b>scene</b>?   <center><br><b>NEVER (1)    BRIEFLY (2)   OFTEN (3) </b>	-16	0	0	0	0	0	0
14	2023-04-13	10:04:41	10:38:31	10:38:31:175	7	1	TNT_Object_CSm	fixation	0	5	1500	0	0	1	1495	1	+	-1	0	0	0	0	0	0
14	2023-04-13	10:04:41	10:38:32	10:38:32:188	7	2	TNT_Object_CSm	Passive	0	5	0	0	0	0	1000	1	VIEW	-16	0	0	0	0	0	0
14	2023-04-13	10:04:41	10:38:37	10:38:37:205	7	3	TNT_Object_CSm	TNT_Object_CSm	0	500	0	0	0	0	5000	3	Object5.jpg	-16	0	0	0	0	0	0
14	2023-04-13	10:04:41	10:38:39	10:38:39:205	8	1	TNT_NoThink_CSm	fixation	0	5	1500	0	0	1	1495	1	+	-9	0	0	0	0	0	0
14	2023-04-13	10:04:41	10:38:40	10:38:40:222	8	2	TNT_NoThink_CSm	NoThink	0	5	0	0	0	0	1000	1	DON'T THINK	-16	0	0	0	0	0	0
14	2023-04-13	10:04:41	10:38:45	10:38:45:239	8	3	TNT_NoThink_CSm	TNT_NoThink_CSm	0	5	0	0	0	0	5000	2	Cue30.jpg	-16	0	0	0	0	0	0
14	2023-04-13	10:04:41	10:38:46	10:38:46:020	8	4	TNT_NoThink_CSm	Intrusion	0	1000	3000	0	81	1	763	1	How <b>often</b> did you <b>think</b> about the <b>scene</b>?   <center><br><b>NEVER (1)    BRIEFLY (2)   OFTEN (3) </b>	-16	0	0	0	0	0	0
14	2023-04-13	10:04:41	10:38:49	10:38:49:243	9	1	TNT_NoThink_CSp	fixation	0	5	1000	0	0	1	995	1	+	-9	0	0	0	0	0	0
14	2023-04-13	10:04:41	10:38:50	10:38:50:257	9	2	TNT_NoThink_CSp	NoThink	0	5	0	0	0	0	1000	1	DON'T THINK	-16	0	0	0	0	0	0
14	2023-04-13	10:04:41	10:38:55	10:38:55:273	9	3	TNT_NoThink_CSp	TNT_NoThink_CSp	0	5	0	0	0	0	5000	3	Cue1.jpg	-16	0	0	0	0	0	0
14	2023-04-13	10:04:41	10:38:56	10:38:56:988	9	4	TNT_NoThink_CSp	Intrusion	0	1500	3000	0	81	1	698	1	How <b>often</b> did you <b>think</b> about the <b>scene</b>?   <center><br><b>NEVER (1)    BRIEFLY (2)   OFTEN (3) </b>	-16	0	0	0	0	0	0
14	2023-04-13	10:04:41	10:38:59	10:38:59:777	10	1	TNT_Object_CSp	fixation	0	5	500	0	0	1	495	1	+	-8	0	0	0	0	0	0
14	2023-04-13	10:04:41	10:39:00	10:39:00:790	10	2	TNT_Object_CSp	Passive	0	5	0	0	0	0	1000	1	VIEW	-16	0	0	0	0	0	0
14	2023-04-13	10:04:41	10:39:05	10:39:05:807	10	3	TNT_Object_CSp	TNT_Object_CSp	0	1000	0	0	0	0	5000	2	Object7.jpg	-16	0	0	0	0	0	0
14	2023-04-13	10:04:41	10:39:07	10:39:07:305	11	1	TNT_Think_CSm	fixation	0	5	1500	0	0	1	1495	1	+	-9	0	0	0	0	0	0
14	2023-04-13	10:04:41	10:39:08	10:39:08:324	11	2	TNT_Think_CSm	Think	0	5	0	0	0	0	1000	1	THINK	-16	0	0	0	0	0	0
14	2023-04-13	10:04:41	10:39:13	10:39:13:341	11	3	TNT_Think_CSm	TNT_Think_CSm	0	5	0	0	0	0	5000	2	Cue19.jpg	-16	0	0	0	0	0	0
14	2023-04-13	10:04:41	10:39:15	10:39:15:564	11	4	TNT_Think_CSm	Intrusion	0	1500	3000	0	81	1	1206	1	How <b>often</b> did you <b>think</b> about the <b>scene</b>?   <center><br><b>NEVER (1)    BRIEFLY (2)   OFTEN (3) </b>	-16	0	0	0	0	0	0
14	2023-04-13	10:04:41	10:39:17	10:39:17:845	12	1	TNT_Think_CSp	fixation	0	5	500	0	0	1	495	1	+	-8	0	0	0	0	0	0
14	2023-04-13	10:04:41	10:39:18	10:39:18:858	12	2	TNT_Think_CSp	Think	0	5	0	0	0	0	1000	1	THINK	-16	0	0	0	0	0	0
14	2023-04-13	10:04:41	10:39:23	10:39:23:874	12	3	TNT_Think_CSp	TNT_Think_CSp	0	5	0	0	0	0	5000	3	Cue18.jpg	-16	0	0	0	0	0	0
14	2023-04-13	10:04:41	10:39:24	10:39:24:196	12	4	TNT_Think_CSp	Intrusion	0	1000	3000	0	81	1	1304	1	How <b>often</b> did you <b>think</b> about the <b>scene</b>?   <center><br><b>NEVER (1)    BRIEFLY (2)   OFTEN (3) </b>	-16	0	0	0	0	0	0
14	2023-04-13	10:04:41	10:39:27	10:39:27:879	13	1	TNT_Think_CSp	fixation	0	5	1000	0	0	1	995	1	+	-16	0	0	0	0	0	0
14	2023-04-13	10:04:41	10:39:28	10:39:28:892	13	2	TNT_Think_CSp	Think	0	5	0	0	0	0	1000	1	THINK	-16	0	0	0	0	0	0
14	2023-04-13	10:04:41	10:39:33	10:39:33:909	13	3	TNT_Think_CSp	TNT_Think_CSp	0	5	0	0	0	0	5000	1	Cue35.jpg	-16	0	0	0	0	0	0
14	2023-04-13	10:04:41	10:39:34	10:39:34:180	13	4	TNT_Think_CSp	Intrusion	0	500	3000	0	81	1	1254	1	How <b>often</b> did you <b>think</b> about the <b>scene</b>?   <center><br><b>NEVER (1)    BRIEFLY (2)   OFTEN (3) </b>	-16	0	0	0	0	0	0
14	2023-04-13	10:04:41	10:39:38	10:39:38:413	14	1	TNT_NoThink_CSm	fixation	0	5	1500	0	0	1	1495	1	+	-16	0	0	0	0	0	0
14	2023-04-13	10:04:41	10:39:39	10:39:39:426	14	2	TNT_NoThink_CSm	NoThink	0	5	0	0	0	0	1000	1	DON'T THINK	-16	0	0	0	0	0	0
14	2023-04-13	10:04:41	10:39:44	10:39:44:443	14	3	TNT_NoThink_CSm	TNT_NoThink_CSm	0	5	0	0	0	0	5000	4	Cue2.jpg	-16	0	0	0	0	0	0
14	2023-04-13	10:04:41	10:39:44	10:39:44:147	14	4	TNT_NoThink_CSm	Intrusion	0	500	3000	0	81	1	688	1	How <b>often</b> did you <b>think</b> about the <b>scene</b>?   <center><br><b>NEVER (1)    BRIEFLY (2)   OFTEN (3) </b>	-16	0	0	0	0	0	0
14	2023-04-13	10:04:41	10:39:47	10:39:47:947	15	1	TNT_Think_CSm	fixation	0	5	500	0	0	1	495	1	+	-16	0	0	0	0	0	0
14	2023-04-13	10:04:41	10:39:48	10:39:48:960	15	2	TNT_Think_CSm	Think	0	5	0	0	0	0	1000	1	THINK	-16	0	0	0	0	0	0
14	2023-04-13	10:04:41	10:39:53	10:39:53:976	15	3	TNT_Think_CSm	TNT_Think_CSm	0	5	0	0	0	0	5000	6	Cue5.jpg	-16	0	0	0	0	0	0
14	2023-04-13	10:04:41	10:39:55	10:39:55:484	15	4	TNT_Think_CSm	Intrusion	0	1500	3000	0	0	0	1500	1	How <b>often</b> did you <b>think</b> about the <b>scene</b>?   <center><br><b>NEVER (1)    BRIEFLY (2)   OFTEN (3) </b>	-16	0	0	0	0	0	0
14	2023-04-13	10:04:41	10:39:57	10:39:57:980	16	1	TNT_Think_CSp	fixation	0	5	1000	0	0	1	995	1	+	-9	0	0	0	0	0	0
14	2023-04-13	10:04:41	10:39:58	10:39:58:994	16	2	TNT_Think_CSp	Think	0	5	0	0	0	0	1000	1	THINK	-16	0	0	0	0	0	0
14	2023-04-13	10:04:41	10:40:03	10:40:03:010	16	3	TNT_Think_CSp	TNT_Think_CSp	0	5	0	0	0	0	5000	4	Cue13.jpg	-16	0	0	0	0	0	0
14	2023-04-13	10:04:41	10:40:04	10:40:04:035	16	4	TNT_Think_CSp	Intrusion	0	1000	3000	0	81	1	1008	1	How <b>often</b> did you <b>think</b> about the <b>scene</b>?   <center><br><b>NEVER (1)    BRIEFLY (2)   OFTEN (3) </b>	-16	0	0	0	0	0	0
14	2023-04-13	10:04:41	10:40:08	10:40:08:515	17	1	TNT_Think_CSp	fixation	0	5	1500	0	0	1	1495	1	+	-16	0	0	0	0	0	0
14	2023-04-13	10:04:41	10:40:09	10:40:09:528	17	2	TNT_Think_CSp	Think	0	5	0	0	0	0	1000	1	THINK	-16	0	0	0	0	0	0
14	2023-04-13	10:04:41	10:40:14	10:40:14:544	17	3	TNT_Think_CSp	TNT_Think_CSp	0	5	0	0	0	0	5000	5	Cue9.jpg	-16	0	0	0	0	0	0
14	2023-04-13	10:04:41	10:40:14	10:40:14:859	17	4	TNT_Think_CSp	Intrusion	0	1000	3000	0	81	1	298	1	How <b>often</b> did you <b>think</b> about the <b>scene</b>?   <center><br><b>NEVER (1)    BRIEFLY (2)   OFTEN (3) </b>	-16	0	0	0	0	0	0
14	2023-04-13	10:04:41	10:40:17	10:40:17:048	18	1	TNT_Think_CSm	fixation	0	5	500	0	0	1	495	1	+	-8	0	0	0	0	0	0
14	2023-04-13	10:04:41	10:40:18	10:40:18:061	18	2	TNT_Think_CSm	Think	0	5	0	0	0	0	1000	1	THINK	-16	0	0	0	0	0	0
14	2023-04-13	10:04:41	10:40:23	10:40:23:078	18	3	TNT_Think_CSm	TNT_Think_CSm	0	5	0	0	0	0	5000	5	Cue34.jpg	-16	0	0	0	0	0	0
14	2023-04-13	10:04:41	10:40:24	10:40:24:427	18	4	TNT_Think_CSm	Intrusion	0	500	3000	0	81	1	332	1	How <b>often</b> did you <b>think</b> about the <b>scene</b>?   <center><br><b>NEVER (1)    BRIEFLY (2)   OFTEN (3) </b>	-16	0	0	0	0	0	0
14	2023-04-13	10:04:41	10:40:27	10:40:27:082	19	1	TNT_Object_CSm	fixation	0	5	1000	0	0	1	995	1	+	-8	0	0	0	0	0	0
14	2023-04-13	10:04:41	10:40:28	10:40:28:095	19	2	TNT_Object_CSm	Passive	0	5	0	0	0	0	1000	1	VIEW	-16	0	0	0	0	0	0
14	2023-04-13	10:04:41	10:40:33	10:40:33:112	19	3	TNT_Object_CSm	TNT_Object_CSm	0	1500	0	0	0	0	5000	4	Object1.jpg	-16	0	0	0	0	0	0
14	2023-04-13	10:04:41	10:40:35	10:40:35:111	20	1	TNT_Think_CSp	fixation	0	5	500	0	0	1	495	1	+	-8	0	0	0	0	0	0
14	2023-04-13	10:04:41	10:40:36	10:40:36:129	20	2	TNT_Think_CSp	Think	0	5	0	0	0	0	1000	1	THINK	-16	0	0	0	0	0	0
14	2023-04-13	10:04:41	10:40:41	10:40:41:146	20	3	TNT_Think_CSp	TNT_Think_CSp	0	5	0	0	0	0	5000	2	Cue33.jpg	-16	0	0	0	0	0	0
14	2023-04-13	10:04:41	10:40:42	10:40:42:084	20	4	TNT_Think_CSp	Intrusion	0	1500	3000	0	81	1	920	1	How <b>often</b> did you <b>think</b> about the <b>scene</b>?   <center><br><b>NEVER (1)    BRIEFLY (2)   OFTEN (3) </b>	-16	0	0	0	0	0	0
14	2023-04-13	10:04:41	10:40:46	10:40:46:650	21	1	TNT_Object_CSp	fixation	0	5	1500	0	0	1	1495	1	+	-8	0	0	0	0	0	0
14	2023-04-13	10:04:41	10:40:47	10:40:47:663	21	2	TNT_Object_CSp	Passive	0	5	0	0	0	0	1000	1	VIEW	-16	0	0	0	0	0	0
14	2023-04-13	10:04:41	10:40:52	10:40:52:680	21	3	TNT_Object_CSp	TNT_Object_CSp	0	1500	0	0	0	0	5000	4	Object2.jpg	-16	0	0	0	0	0	0
14	2023-04-13	10:04:41	10:40:54	10:40:54:179	22	1	TNT_Think_CSm	fixation	0	5	1000	0	0	1	995	1	+	-8	0	0	0	0	0	0
14	2023-04-13	10:04:41	10:40:55	10:40:55:197	22	2	TNT_Think_CSm	Think	0	5	0	0	0	0	1000	1	THINK	-16	0	0	0	0	0	0
14	2023-04-13	10:04:41	10:41:00	10:41:00:214	22	3	TNT_Think_CSm	TNT_Think_CSm	0	5	0	0	0	0	5000	1	Cue27.jpg	-16	0	0	0	0	0	0
14	2023-04-13	10:04:41	10:41:01	10:41:01:948	22	4	TNT_Think_CSm	Intrusion	0	500	3000	0	81	1	717	1	How <b>often</b> did you <b>think</b> about the <b>scene</b>?   <center><br><b>NEVER (1)    BRIEFLY (2)   OFTEN (3) </b>	-16	0	0	0	0	0	0
14	2023-04-13	10:04:41	10:41:05	10:41:05:718	23	1	TNT_NoThink_CSp	fixation	0	5	1500	0	0	1	1495	1	+	-16	0	0	0	0	0	0
14	2023-04-13	10:04:41	10:41:06	10:41:06:731	23	2	TNT_NoThink_CSp	NoThink	0	5	0	0	0	0	1000	1	DON'T THINK	-16	0	0	0	0	0	0
14	2023-04-13	10:04:41	10:41:11	10:41:11:748	23	3	TNT_NoThink_CSp	TNT_NoThink_CSp	0	5	0	0	0	0	5000	6	Cue10.jpg	-16	0	0	0	0	0	0
14	2023-04-13	10:04:41	10:41:12	10:41:12:827	23	4	TNT_NoThink_CSp	Intrusion	0	1000	3000	0	81	1	1062	1	How <b>often</b> did you <b>think</b> about the <b>scene</b>?   <center><br><b>NEVER (1)    BRIEFLY (2)   OFTEN (3) </b>	-16	0	0	0	0	0	0
14	2023-04-13	10:04:41	10:41:14	10:41:14:252	24	1	TNT_NoThink_CSp	fixation	0	5	500	0	0	1	495	1	+	-16	0	0	0	0	0	0
14	2023-04-13	10:04:41	10:41:15	10:41:15:265	24	2	TNT_NoThink_CSp	NoThink	0	5	0	0	0	0	1000	1	DON'T THINK	-16	0	0	0	0	0	0
14	2023-04-13	10:04:41	10:41:20	10:41:20:282	24	3	TNT_NoThink_CSp	TNT_NoThink_CSp	0	5	0	0	0	0	5000	5	Cue32.jpg	-16	0	0	0	0	0	0
14	2023-04-13	10:04:41	10:41:21	10:41:21:172	24	4	TNT_NoThink_CSp	Intrusion	0	1500	3000	0	80	1	873	1	How <b>often</b> did you <b>think</b> about the <b>scene</b>?   <center><br><b>NEVER (1)    BRIEFLY (2)   OFTEN (3) </b>	-16	0	0	0	0	0	0
14	2023-04-13	10:04:41	10:41:24	10:41:24:286	25	1	TNT_Object_CSp	fixation	0	5	1000	0	0	1	995	1	+	-16	0	0	0	0	0	0
14	2023-04-13	10:04:41	10:41:25	10:41:25:298	25	2	TNT_Object_CSp	Passive	0	5	0	0	0	0	1000	1	VIEW	-16	0	0	0	0	0	0
14	2023-04-13	10:04:41	10:41:30	10:41:30:316	25	3	TNT_Object_CSp	TNT_Object_CSp	0	500	0	0	0	0	5000	3	Object8.jpg	-16	0	0	0	0	0	0
14	2023-04-13	10:04:41	10:41:32	10:41:32:315	26	1	TNT_NoThink_CSm	fixation	0	5	1500	0	0	1	1495	1	+	-8	0	0	0	0	0	0
14	2023-04-13	10:04:41	10:41:33	10:41:33:333	26	2	TNT_NoThink_CSm	NoThink	0	5	0	0	0	0	1000	1	DON'T THINK	-16	0	0	0	0	0	0
14	2023-04-13	10:04:41	10:41:39	10:41:39:349	26	3	TNT_NoThink_CSm	TNT_NoThink_CSm	0	5	0	0	0	0	5000	1	Cue16.jpg	-16	0	0	0	0	0	0
14	2023-04-13	10:04:41	10:41:39	10:41:39:691	26	4	TNT_NoThink_CSm	Intrusion	0	1500	3000	0	81	1	324	1	How <b>often</b> did you <b>think</b> about the <b>scene</b>?   <center><br><b>NEVER (1)    BRIEFLY (2)   OFTEN (3) </b>	-16	0	0	0	0	0	0
14	2023-04-13	10:04:41	10:41:43	10:41:43:353	27	1	TNT_NoThink_CSm	fixation	0	5	1000	0	0	1	995	1	+	-8	0	0	0	0	0	0
14	2023-04-13	10:04:41	10:41:44	10:41:44:367	27	2	TNT_NoThink_CSm	NoThink	0	5	0	0	0	0	1000	1	DON'T THINK	-16	0	0	0	0	0	0
14	2023-04-13	10:04:41	10:41:49	10:41:49:383	27	3	TNT_NoThink_CSm	TNT_NoThink_CSm	0	5	0	0	0	0	5000	3	Cue14.jpg	-16	0	0	0	0	0	0
14	2023-04-13	10:04:41	10:41:49	10:41:49:156	27	4	TNT_NoThink_CSm	Intrusion	0	500	3000	0	81	1	755	1	How <b>often</b> did you <b>think</b> about the <b>scene</b>?   <center><br><b>NEVER (1)    BRIEFLY (2)   OFTEN (3) </b>	-16	0	0	0	0	0	0
14	2023-04-13	10:04:41	10:41:52	10:41:52:887	28	1	TNT_NoThink_CSp	fixation	0	5	500	0	0	1	495	1	+	-9	0	0	0	0	0	0
14	2023-04-13	10:04:41	10:41:53	10:41:53:900	28	2	TNT_NoThink_CSp	NoThink	0	5	0	0	0	0	1000	1	DON'T THINK	-16	0	0	0	0	0	0
14	2023-04-13	10:04:41	10:41:58	10:41:58:927	28	3	TNT_NoThink_CSp	TNT_NoThink_CSp	0	5	0	0	0	0	5000	4	Cue17.jpg	-16	0	0	0	0	0	0
14	2023-04-13	10:04:41	10:41:59	10:41:59:660	28	4	TNT_NoThink_CSp	Intrusion	0	1000	3000	0	80	1	725	1	How <b>often</b> did you <b>think</b> about the <b>scene</b>?   <center><br><b>NEVER (1)    BRIEFLY (2)   OFTEN (3) </b>	-16	0	0	0	0	0	0
14	2023-04-13	10:04:41	10:42:02	10:42:02:429	29	1	TNT_NoThink_CSm	fixation	0	5	500	0	0	1	495	1	+	-8	0	0	0	0	0	0
14	2023-04-13	10:04:41	10:42:03	10:42:03:451	29	2	TNT_NoThink_CSm	NoThink	0	5	0	0	0	0	1000	1	DON'T THINK	-8	0	0	0	0	0	0
14	2023-04-13	10:04:41	10:42:08	10:42:08:468	29	3	TNT_NoThink_CSm	TNT_NoThink_CSm	0	5	0	0	0	0	5000	6	Cue22.jpg	-16	0	0	0	0	0	0
14	2023-04-13	10:04:41	10:42:08	10:42:08:163	29	4	TNT_NoThink_CSm	Intrusion	0	1500	3000	0	81	1	679	1	How <b>often</b> did you <b>think</b> about the <b>scene</b>?   <center><br><b>NEVER (1)    BRIEFLY (2)   OFTEN (3) </b>	-16	0	0	0	0	0	0
14	2023-04-13	10:04:41	10:42:12	10:42:12:472	30	1	TNT_NoThink_CSp	fixation	0	5	1000	0	0	1	995	1	+	-16	0	0	0	0	0	0
14	2023-04-13	10:04:41	10:42:13	10:42:13:485	30	2	TNT_NoThink_CSp	NoThink	0	5	0	0	0	0	1000	1	DON'T THINK	-16	0	0	0	0	0	0
14	2023-04-13	10:04:41	10:42:18	10:42:18:502	30	3	TNT_NoThink_CSp	TNT_NoThink_CSp	0	5	0	0	0	0	5000	1	Cue20.jpg	-16	0	0	0	0	0	0
14	2023-04-13	10:04:41	10:42:18	10:42:18:924	30	4	TNT_NoThink_CSp	Intrusion	0	500	3000	0	81	1	405	1	How <b>often</b> did you <b>think</b> about the <b>scene</b>?   <center><br><b>NEVER (1)    BRIEFLY (2)   OFTEN (3) </b>	-16	0	0	0	0	0	0
14	2023-04-13	10:04:41	10:42:22	10:42:22:06	31	1	TNT_Object_CSp	fixation	0	5	1500	0	0	1	1495	1	+	-9	0	0	0	0	0	0
14	2023-04-13	10:04:41	10:42:23	10:42:23:019	31	2	TNT_Object_CSp	Passive	0	5	0	0	0	0	1000	1	VIEW	-16	0	0	0	0	0	0
14	2023-04-13	10:04:41	10:42:28	10:42:28:035	31	3	TNT_Object_CSp	TNT_Object_CSp	0	1000	0	0	0	0	5000	1	Object6.jpg	-16	0	0	0	0	0	0
14	2023-04-13	10:04:41	10:42:30	10:42:30:535	32	1	TNT_Object_CSm	fixation	0	5	500	0	0	1	495	1	+	-8	0	0	0	0	0	0
14	2023-04-13	10:04:41	10:42:31	10:42:31:553	32	2	TNT_Object_CSm	Passive	0	5	0	0	0	0	1000	1	VIEW	-16	0	0	0	0	0	0
14	2023-04-13	10:04:41	10:42:36	10:42:36:570	32	3	TNT_Object_CSm	TNT_Object_CSm	0	500	0	0	0	0	5000	2	Object4.jpg	-16	0	0	0	0	0	0
14	2023-04-13	10:04:41	10:42:37	10:42:37:069	33	1	TNT_NoThink_CSp	fixation	0	5	1000	0	0	1	995	1	+	-9	0	0	0	0	0	0
14	2023-04-13	10:04:41	10:42:38	10:42:38:087	33	2	TNT_NoThink_CSp	NoThink	0	5	0	0	0	0	1000	1	DON'T THINK	-16	0	0	0	0	0	0
14	2023-04-13	10:04:41	10:42:43	10:42:43:103	33	3	TNT_NoThink_CSp	TNT_NoThink_CSp	0	5	0	0	0	0	5000	2	Cue11.jpg	-16	0	0	0	0	0	0
14	2023-04-13	10:04:41	10:42:44	10:42:44:459	33	4	TNT_NoThink_CSp	Intrusion	0	1000	3000	0	81	1	339	1	How <b>often</b> did you <b>think</b> about the <b>scene</b>?   <center><br><b>NEVER (1)    BRIEFLY (2)   OFTEN (3) </b>	-16	0	0	0	0	0	0
14	2023-04-13	10:04:41	10:42:48	10:42:48:607	34	1	TNT_NoThink_CSp	fixation	0	5	1500	0	0	1	1495	1	+	-9	0	0	0	0	0	0
14	2023-04-13	10:04:41	10:42:49	10:42:49:620	34	2	TNT_NoThink_CSp	NoThink	0	5	0	0	0	0	1000	1	DON'T THINK	-16	0	0	0	0	0	0
14	2023-04-13	10:04:41	10:42:54	10:42:54:637	34	3	TNT_NoThink_CSp	TNT_NoThink_CSp	0	5	0	0	0	0	5000	6	Cue10.jpg	-16	0	0	0	0	0	0
14	2023-04-13	10:04:41	10:42:54	10:42:54:03	34	4	TNT_NoThink_CSp	Intrusion	0	1000	3000	0	81	1	349	1	How <b>often</b> did you <b>think</b> about the <b>scene</b>?   <center><br><b>NEVER (1)    BRIEFLY (2)   OFTEN (3) </b>	-16	0	0	0	0	0	0
14	2023-04-13	10:04:41	10:42:57	10:42:57:141	35	1	TNT_Object_CSm	fixation	0	5	500	0	0	1	495	1	+	-9	0	0	0	0	0	0
14	2023-04-13	10:04:41	10:42:58	10:42:58:154	35	2	TNT_Object_CSm	Passive	0	5	0	0	0	0	1000	1	VIEW	-16	0	0	0	0	0	0
14	2023-04-13	10:04:41	10:43:03	10:43:03:171	35	3	TNT_Object_CSm	TNT_Object_CSm	0	1000	0	0	0	0	5000	1	Object3.jpg	-16	0	0	0	0	0	0
14	2023-04-13	10:04:41	10:43:05	10:43:05:170	36	1	TNT_Object_CSm	fixation	0	5	1000	0	0	1	995	1	+	0	0	0	0	0	0	0
14	2023-04-13	10:04:41	10:43:06	10:43:06:188	36	2	TNT_Object_CSm	Passive	0	5	0	0	0	0	1000	1	VIEW	-16	0	0	0	0	0	0
14	2023-04-13	10:04:41	10:43:11	10:43:11:205	36	3	TNT_Object_CSm	TNT_Object_CSm	0	1500	0	0	0	0	5000	2	Object4.jpg	-16	0	0	0	0	0	0
14	2023-04-13	10:04:41	10:43:14	10:43:14:205	37	1	TNT_Think_CSm	fixation	0	5	1500	0	0	1	1495	1	+	-3	0	0	0	0	0	0
14	2023-04-13	10:04:41	10:43:15	10:43:15:222	37	2	TNT_Think_CSm	Think	0	5	0	0	0	0	1000	1	THINK	-16	0	0	0	0	0	0
14	2023-04-13	10:04:41	10:43:20	10:43:20:239	37	3	TNT_Think_CSm	TNT_Think_CSm	0	5	0	0	0	0	5000	2	Cue19.jpg	-16	0	0	0	0	0	0
14	2023-04-13	10:04:41	10:43:21	10:43:21:188	37	4	TNT_Think_CSm	Intrusion	0	500	3000	0	81	1	932	1	How <b>often</b> did you <b>think</b> about the <b>scene</b>?   <center><br><b>NEVER (1)    BRIEFLY (2)   OFTEN (3) </b>	-16	0	0	0	0	0	0
14	2023-04-13	10:04:41	10:43:24	10:43:24:743	38	1	TNT_NoThink_CSp	fixation	0	5	500	0	0	1	495	1	+	-8	0	0	0	0	0	0
14	2023-04-13	10:04:41	10:43:25	10:43:25:756	38	2	TNT_NoThink_CSp	NoThink	0	5	0	0	0	0	1000	1	DON'T THINK	-16	0	0	0	0	0	0
14	2023-04-13	10:04:41	10:43:30	10:43:30:773	38	3	TNT_NoThink_CSp	TNT_NoThink_CSp	0	5	0	0	0	0	5000	4	Cue17.jpg	-16	0	0	0	0	0	0
14	2023-04-13	10:04:41	10:43:30	10:43:30:163	38	4	TNT_NoThink_CSp	Intrusion	0	1500	3000	0	80	1	374	1	How <b>often</b> did you <b>think</b> about the <b>scene</b>?   <center><br><b>NEVER (1)    BRIEFLY (2)   OFTEN (3) </b>	-16	0	0	0	0	0	0
14	2023-04-13	10:04:41	10:43:34	10:43:34:276	39	1	TNT_Object_CSp	fixation	0	5	1500	0	0	1	1495	1	+	-9	0	0	0	0	0	0
14	2023-04-13	10:04:41	10:43:35	10:43:35:290	39	2	TNT_Object_CSp	Passive	0	5	0	0	0	0	1000	1	VIEW	-16	0	0	0	0	0	0
14	2023-04-13	10:04:41	10:43:40	10:43:40:306	39	3	TNT_Object_CSp	TNT_Object_CSp	0	500	0	0	0	0	5000	2	Object7.jpg	-16	0	0	0	0	0	0
14	2023-04-13	10:04:41	10:43:42	10:43:42:806	40	1	TNT_Think_CSp	fixation	0	5	1000	0	0	1	995	1	+	-9	0	0	0	0	0	0
14	2023-04-13	10:04:41	10:43:43	10:43:43:824	40	2	TNT_Think_CSp	Think	0	5	0	0	0	0	1000	1	THINK	-16	0	0	0	0	0	0
14	2023-04-13	10:04:41	10:43:48	10:43:48:841	40	3	TNT_Think_CSp	TNT_Think_CSp	0	5	0	0	0	0	5000	3	Cue18.jpg	-16	0	0	0	0	0	0
14	2023-04-13	10:04:41	10:43:49	10:43:49:803	40	4	TNT_Think_CSp	Intrusion	0	1000	3000	0	81	1	946	1	How <b>often</b> did you <b>think</b> about the <b>scene</b>?   <center><br><b>NEVER (1)    BRIEFLY (2)   OFTEN (3) </b>	-16	0	0	0	0	0	0
14	2023-04-13	10:04:41	10:43:52	10:43:52:845	41	1	TNT_Think_CSp	fixation	0	5	1000	0	0	1	995	1	+	-16	0	0	0	0	0	0
14	2023-04-13	10:04:41	10:43:53	10:43:53:858	41	2	TNT_Think_CSp	Think	0	5	0	0	0	0	1000	1	THINK	-16	0	0	0	0	0	0
14	2023-04-13	10:04:41	10:43:58	10:43:58:875	41	3	TNT_Think_CSp	TNT_Think_CSp	0	5	0	0	0	0	5000	4	Cue13.jpg	-16	0	0	0	0	0	0
14	2023-04-13	10:04:41	10:43:59	10:43:59:387	41	4	TNT_Think_CSp	Intrusion	0	1500	3000	0	81	1	496	1	How <b>often</b> did you <b>think</b> about the <b>scene</b>?   <center><br><b>NEVER (1)    BRIEFLY (2)   OFTEN (3) </b>	-16	0	0	0	0	0	0
14	2023-04-13	10:04:41	10:44:02	10:44:02:378	42	1	TNT_Object_CSp	fixation	0	5	500	0	0	1	495	1	+	-9	0	0	0	0	0	0
14	2023-04-13	10:04:41	10:44:03	10:44:03:391	42	2	TNT_Object_CSp	Passive	0	5	0	0	0	0	1000	1	VIEW	-16	0	0	0	0	0	0
14	2023-04-13	10:04:41	10:44:08	10:44:08:408	42	3	TNT_Object_CSp	TNT_Object_CSp	0	1500	0	0	0	0	5000	3	Object8.jpg	-16	0	0	0	0	0	0
14	2023-04-13	10:04:41	10:44:11	10:44:11:408	43	1	TNT_Think_CSm	fixation	0	5	1500	0	0	1	1495	1	+	-9	0	0	0	0	0	0
14	2023-04-13	10:04:41	10:44:12	10:44:12:425	43	2	TNT_Think_CSm	Think	0	5	0	0	0	0	1000	1	THINK	-16	0	0	0	0	0	0
14	2023-04-13	10:04:41	10:44:17	10:44:17:442	43	3	TNT_Think_CSm	TNT_Think_CSm	0	5	0	0	0	0	5000	3	Cue31.jpg	-16	0	0	0	0	0	0
14	2023-04-13	10:04:41	10:44:17	10:44:17:315	43	4	TNT_Think_CSm	Intrusion	0	500	3000	0	81	1	856	1	How <b>often</b> did you <b>think</b> about the <b>scene</b>?   <center><br><b>NEVER (1)    BRIEFLY (2)   OFTEN (3) </b>	-16	0	0	0	0	0	0
14	2023-04-13	10:04:41	10:44:21	10:44:21:446	44	1	TNT_NoThink_CSm	fixation	0	5	1000	0	0	1	995	1	+	-9	0	0	0	0	0	0
14	2023-04-13	10:04:41	10:44:22	10:44:22:459	44	2	TNT_NoThink_CSm	NoThink	0	5	0	0	0	0	1000	1	DON'T THINK	-16	0	0	0	0	0	0
14	2023-04-13	10:04:41	10:44:27	10:44:27:476	44	3	TNT_NoThink_CSm	TNT_NoThink_CSm	0	5	0	0	0	0	5000	5	Cue25.jpg	-16	0	0	0	0	0	0
14	2023-04-13	10:04:41	10:44:27	10:44:27:995	44	4	TNT_NoThink_CSm	Intrusion	0	1000	3000	0	80	1	503	1	How <b>often</b> did you <b>think</b> about the <b>scene</b>?   <center><br><b>NEVER (1)    BRIEFLY (2)   OFTEN (3) </b>	-16	0	0	0	0	0	0
14	2023-04-13	10:04:41	10:44:30	10:44:30:979	45	1	TNT_Think_CSp	fixation	0	5	500	0	0	1	495	1	+	-8	0	0	0	0	0	0
14	2023-04-13	10:04:41	10:44:31	10:44:31:993	45	2	TNT_Think_CSp	Think	0	5	0	0	0	0	1000	1	THINK	-16	0	0	0	0	0	0
14	2023-04-13	10:04:41	10:44:36	10:44:36:010	45	3	TNT_Think_CSp	TNT_Think_CSp	0	5	0	0	0	0	5000	2	Cue33.jpg	-16	0	0	0	0	0	0
14	2023-04-13	10:04:41	10:44:37	10:44:37:299	45	4	TNT_Think_CSp	Intrusion	0	500	3000	0	81	1	1271	1	How <b>often</b> did you <b>think</b> about the <b>scene</b>?   <center><br><b>NEVER (1)    BRIEFLY (2)   OFTEN (3) </b>	-16	0	0	0	0	0	0
14	2023-04-13	10:04:41	10:44:41	10:44:41:514	46	1	TNT_NoThink_CSm	fixation	0	5	1500	0	0	1	1495	1	+	-8	0	0	0	0	0	0
14	2023-04-13	10:04:41	10:44:42	10:44:42:527	46	2	TNT_NoThink_CSm	NoThink	0	5	0	0	0	0	1000	1	DON'T THINK	-16	0	0	0	0	0	0
14	2023-04-13	10:04:41	10:44:47	10:44:47:544	46	3	TNT_NoThink_CSm	TNT_NoThink_CSm	0	5	0	0	0	0	5000	3	Cue14.jpg	-16	0	0	0	0	0	0
14	2023-04-13	10:04:41	10:44:47	10:44:47:931	46	4	TNT_NoThink_CSm	Intrusion	0	1500	3000	0	80	1	370	1	How <b>often</b> did you <b>think</b> about the <b>scene</b>?   <center><br><b>NEVER (1)    BRIEFLY (2)   OFTEN (3) </b>	-16	0	0	0	0	0	0
14	2023-04-13	10:04:41	10:44:50	10:44:50:048	47	1	TNT_Think_CSp	fixation	0	5	500	0	0	1	495	1	+	-8	0	0	0	0	0	0
14	2023-04-13	10:04:41	10:44:51	10:44:51:061	47	2	TNT_Think_CSp	Think	0	5	0	0	0	0	1000	1	THINK	-16	0	0	0	0	0	0
14	2023-04-13	10:04:41	10:44:56	10:44:56:078	47	3	TNT_Think_CSp	TNT_Think_CSp	0	5	0	0	0	0	5000	5	Cue9.jpg	-16	0	0	0	0	0	0
14	2023-04-13	10:04:41	10:44:57	10:44:57:611	47	4	TNT_Think_CSp	Intrusion	0	1500	3000	0	81	1	516	1	How <b>often</b> did you <b>think</b> about the <b>scene</b>?   <center><br><b>NEVER (1)    BRIEFLY (2)   OFTEN (3) </b>	-16	0	0	0	0	0	0
14	2023-04-13	10:04:41	10:45:00	10:45:00:081	48	1	TNT_NoThink_CSp	fixation	0	5	1000	0	0	1	995	1	+	-9	0	0	0	0	0	0
14	2023-04-13	10:04:41	10:45:01	10:45:01:095	48	2	TNT_NoThink_CSp	NoThink	0	5	0	0	0	0	1000	1	DON'T THINK	-16	0	0	0	0	0	0
14	2023-04-13	10:04:41	10:45:06	10:45:06:112	48	3	TNT_NoThink_CSp	TNT_NoThink_CSp	0	5	0	0	0	0	5000	5	Cue32.jpg	-16	0	0	0	0	0	0
14	2023-04-13	10:04:41	10:45:07	10:45:07:595	48	4	TNT_NoThink_CSp	Intrusion	0	500	3000	0	80	1	466	1	How <b>often</b> did you <b>think</b> about the <b>scene</b>?   <center><br><b>NEVER (1)    BRIEFLY (2)   OFTEN (3) </b>	-16	0	0	0	0	0	0
14	2023-04-13	10:04:41	10:45:11	10:45:11:616	49	1	TNT_Think_CSm	fixation	0	5	1500	0	0	1	1495	1	+	-8	0	0	0	0	0	0
14	2023-04-13	10:04:41	10:45:12	10:45:12:629	49	2	TNT_Think_CSm	Think	0	5	0	0	0	0	1000	1	THINK	-16	0	0	0	0	0	0
14	2023-04-13	10:04:41	10:45:17	10:45:17:646	49	3	TNT_Think_CSm	TNT_Think_CSm	0	5	0	0	0	0	5000	1	Cue27.jpg	-16	0	0	0	0	0	0
14	2023-04-13	10:04:41	10:45:18	10:45:18:243	49	4	TNT_Think_CSm	Intrusion	0	1000	3000	0	81	1	1580	1	How <b>often</b> did you <b>think</b> about the <b>scene</b>?   <center><br><b>NEVER (1)    BRIEFLY (2)   OFTEN (3) </b>	-16	0	0	0	0	0	0
14	2023-04-13	10:04:41	10:45:20	10:45:20:150	50	1	TNT_NoThink_CSm	fixation	0	5	500	0	0	1	495	1	+	-16	0	0	0	0	0	0
14	2023-04-13	10:04:41	10:45:21	10:45:21:163	50	2	TNT_NoThink_CSm	NoThink	0	5	0	0	0	0	1000	1	DON'T THINK	-16	0	0	0	0	0	0
14	2023-04-13	10:04:41	10:45:26	10:45:26:180	50	3	TNT_NoThink_CSm	TNT_NoThink_CSm	0	5	0	0	0	0	5000	1	Cue16.jpg	-16	0	0	0	0	0	0
14	2023-04-13	10:04:41	10:45:27	10:45:27:643	50	4	TNT_NoThink_CSm	Intrusion	0	1500	3000	0	80	1	446	1	How <b>often</b> did you <b>think</b> about the <b>scene</b>?   <center><br><b>NEVER (1)    BRIEFLY (2)   OFTEN (3) </b>	-16	0	0	0	0	0	0
14	2023-04-13	10:04:41	10:45:30	10:45:30:184	51	1	TNT_Object_CSm	fixation	0	5	1000	0	0	1	995	1	+	-16	0	0	0	0	0	0
14	2023-04-13	10:04:41	10:45:31	10:45:31:196	51	2	TNT_Object_CSm	Passive	0	5	0	0	0	0	1000	1	VIEW	-16	0	0	0	0	0	0
14	2023-04-13	10:04:41	10:45:36	10:45:36:214	51	3	TNT_Object_CSm	TNT_Object_CSm	0	500	0	0	0	0	5000	4	Object1.jpg	-16	0	0	0	0	0	0
14	2023-04-13	10:04:41	10:45:38	10:45:38:213	52	1	TNT_Think_CSm	fixation	0	5	1500	0	0	1	1495	1	+	-8	0	0	0	0	0	0
14	2023-04-13	10:04:41	10:45:39	10:45:39:230	52	2	TNT_Think_CSm	Think	0	5	0	0	0	0	1000	1	THINK	-16	0	0	0	0	0	0
14	2023-04-13	10:04:41	10:45:44	10:45:44:247	52	3	TNT_Think_CSm	TNT_Think_CSm	0	5	0	0	0	0	5000	6	Cue5.jpg	-16	0	0	0	0	0	0
14	2023-04-13	10:04:41	10:45:46	10:45:46:443	52	4	TNT_Think_CSm	Intrusion	0	500	3000	0	81	1	1178	1	How <b>often</b> did you <b>think</b> about the <b>scene</b>?   <center><br><b>NEVER (1)    BRIEFLY (2)   OFTEN (3) </b>	-16	0	0	0	0	0	0
14	2023-04-13	10:04:41	10:45:48	10:45:48:251	53	1	TNT_Think_CSm	fixation	0	5	1000	0	0	1	995	1	+	-8	0	0	0	0	0	0
14	2023-04-13	10:04:41	10:45:49	10:45:49:264	53	2	TNT_Think_CSm	Think	0	5	0	0	0	0	1000	1	THINK	-16	0	0	0	0	0	0
14	2023-04-13	10:04:41	10:45:54	10:45:54:281	53	3	TNT_Think_CSm	TNT_Think_CSm	0	5	0	0	0	0	5000	4	Cue24.jpg	-16	0	0	0	0	0	0
14	2023-04-13	10:04:41	10:45:55	10:45:55:995	53	4	TNT_Think_CSm	Intrusion	0	1000	3000	0	81	1	696	1	How <b>often</b> did you <b>think</b> about the <b>scene</b>?   <center><br><b>NEVER (1)    BRIEFLY (2)   OFTEN (3) </b>	-16	0	0	0	0	0	0
14	2023-04-13	10:04:41	10:45:58	10:45:58:785	54	1	TNT_Object_CSm	fixation	0	5	500	0	0	1	495	1	+	-8	0	0	0	0	0	0
14	2023-04-13	10:04:41	10:45:59	10:45:59:798	54	2	TNT_Object_CSm	Passive	0	5	0	0	0	0	1000	1	VIEW	-16	0	0	0	0	0	0
14	2023-04-13	10:04:41	10:46:04	10:46:04:815	54	3	TNT_Object_CSm	TNT_Object_CSm	0	1500	0	0	0	0	5000	3	Object5.jpg	-16	0	0	0	0	0	0
14	2023-04-13	10:04:41	10:46:07	10:46:07:815	55	1	TNT_Object_CSp	fixation	0	5	1500	0	0	1	1495	1	+	-9	0	0	0	0	0	0
14	2023-04-13	10:04:41	10:46:08	10:46:08:832	55	2	TNT_Object_CSp	Passive	0	5	0	0	0	0	1000	1	VIEW	-16	0	0	0	0	0	0
14	2023-04-13	10:04:41	10:46:13	10:46:13:849	55	3	TNT_Object_CSp	TNT_Object_CSp	0	500	0	0	0	0	5000	4	Object2.jpg	-16	0	0	0	0	0	0
14	2023-04-13	10:04:41	10:46:15	10:46:15:348	56	1	TNT_NoThink_CSm	fixation	0	5	1000	0	0	1	995	1	+	-8	0	0	0	0	0	0
14	2023-04-13	10:04:41	10:46:16	10:46:16:366	56	2	TNT_NoThink_CSm	NoThink	0	5	0	0	0	0	1000	1	DON'T THINK	-16	0	0	0	0	0	0
14	2023-04-13	10:04:41	10:46:21	10:46:21:383	56	3	TNT_NoThink_CSm	TNT_NoThink_CSm	0	5	0	0	0	0	5000	2	Cue30.jpg	-16	0	0	0	0	0	0
14	2023-04-13	10:04:41	10:46:21	10:46:21:995	56	4	TNT_NoThink_CSm	Intrusion	0	1000	3000	0	80	1	595	1	How <b>often</b> did you <b>think</b> about the <b>scene</b>?   <center><br><b>NEVER (1)    BRIEFLY (2)   OFTEN (3) </b>	-16	0	0	0	0	0	0
14	2023-04-13	10:04:41	10:46:24	10:46:24:886	57	1	TNT_NoThink_CSp	fixation	0	5	500	0	0	1	495	1	+	-8	0	0	0	0	0	0
14	2023-04-13	10:04:41	10:46:25	10:46:25:900	57	2	TNT_NoThink_CSp	NoThink	0	5	0	0	0	0	1000	1	DON'T THINK	-16	0	0	0	0	0	0
14	2023-04-13	10:04:41	10:46:30	10:46:30:917	57	3	TNT_NoThink_CSp	TNT_NoThink_CSp	0	5	0	0	0	0	5000	1	Cue20.jpg	-16	0	0	0	0	0	0
14	2023-04-13	10:04:41	10:46:31	10:46:31:499	57	4	TNT_NoThink_CSp	Intrusion	0	500	3000	0	80	1	565	1	How <b>often</b> did you <b>think</b> about the <b>scene</b>?   <center><br><b>NEVER (1)    BRIEFLY (2)   OFTEN (3) </b>	-16	0	0	0	0	0	0
14	2023-04-13	10:04:41	10:46:35	10:46:35:421	58	1	TNT_NoThink_CSp	fixation	0	5	1500	0	0	1	1495	1	+	-16	0	0	0	0	0	0
14	2023-04-13	10:04:41	10:46:36	10:46:36:434	58	2	TNT_NoThink_CSp	NoThink	0	5	0	0	0	0	1000	1	DON'T THINK	-16	0	0	0	0	0	0
14	2023-04-13	10:04:41	10:46:41	10:46:41:451	58	3	TNT_NoThink_CSp	TNT_NoThink_CSp	0	5	0	0	0	0	5000	2	Cue11.jpg	-16	0	0	0	0	0	0
14	2023-04-13	10:04:41	10:46:41	10:46:41:947	58	4	TNT_NoThink_CSp	Intrusion	0	1500	3000	0	80	1	478	1	How <b>often</b> did you <b>think</b> about the <b>scene</b>?   <center><br><b>NEVER (1)    BRIEFLY (2)   OFTEN (3) </b>	-16	0	0	0	0	0	0
14	2023-04-13	10:04:41	10:46:45	10:46:45:455	59	1	TNT_Think_CSp	fixation	0	5	1000	0	0	1	995	1	+	-8	0	0	0	0	0	0
14	2023-04-13	10:04:41	10:46:46	10:46:46:468	59	2	TNT_Think_CSp	Think	0	5	0	0	0	0	1000	1	THINK	-16	0	0	0	0	0	0
14	2023-04-13	10:04:41	10:46:51	10:46:51:484	59	3	TNT_Think_CSp	TNT_Think_CSp	0	5	0	0	0	0	5000	6	Cue7.jpg	-16	0	0	0	0	0	0
14	2023-04-13	10:04:41	10:46:51	10:46:51:995	59	4	TNT_Think_CSp	Intrusion	0	1500	3000	0	81	1	493	1	How <b>often</b> did you <b>think</b> about the <b>scene</b>?   <center><br><b>NEVER (1)    BRIEFLY (2)   OFTEN (3) </b>	-16	0	0	0	0	0	0
14	2023-04-13	10:04:41	10:46:55	10:46:55:988	60	1	TNT_NoThink_CSm	fixation	0	5	1500	0	0	1	1495	1	+	-16	0	0	0	0	0	0
14	2023-04-13	10:04:41	10:46:56	10:46:56:02	60	2	TNT_NoThink_CSm	NoThink	0	5	0	0	0	0	1000	1	DON'T THINK	-16	0	0	0	0	0	0
14	2023-04-13	10:04:41	10:47:01	10:47:01:019	60	3	TNT_NoThink_CSm	TNT_NoThink_CSm	0	5	0	0	0	0	5000	4	Cue2.jpg	-16	0	0	0	0	0	0
14	2023-04-13	10:04:41	10:47:02	10:47:02:539	60	4	TNT_NoThink_CSm	Intrusion	0	500	3000	0	80	1	503	1	How <b>often</b> did you <b>think</b> about the <b>scene</b>?   <center><br><b>NEVER (1)    BRIEFLY (2)   OFTEN (3) </b>	-16	0	0	0	0	0	0
14	2023-04-13	10:04:41	10:47:05	10:47:05:523	61	1	TNT_Think_CSm	fixation	0	5	500	0	0	1	495	1	+	-16	0	0	0	0	0	0
14	2023-04-13	10:04:41	10:47:06	10:47:06:535	61	2	TNT_Think_CSm	Think	0	5	0	0	0	0	1000	1	THINK	-16	0	0	0	0	0	0
14	2023-04-13	10:04:41	10:47:11	10:47:11:553	61	3	TNT_Think_CSm	TNT_Think_CSm	0	5	0	0	0	0	5000	5	Cue34.jpg	-16	0	0	0	0	0	0
14	2023-04-13	10:04:41	10:47:12	10:47:12:827	61	4	TNT_Think_CSm	Intrusion	0	1000	3000	0	81	1	1257	1	How <b>often</b> did you <b>think</b> about the <b>scene</b>?   <center><br><b>NEVER (1)    BRIEFLY (2)   OFTEN (3) </b>	-16	0	0	0	0	0	0
14	2023-04-13	10:04:41	10:47:15	10:47:15:057	62	1	TNT_Think_CSp	fixation	0	5	1500	0	0	1	1495	1	+	-16	0	0	0	0	0	0
14	2023-04-13	10:04:41	10:47:16	10:47:16:070	62	2	TNT_Think_CSp	Think	0	5	0	0	0	0	1000	1	THINK	-16	0	0	0	0	0	0
14	2023-04-13	10:04:41	10:47:21	10:47:21:086	62	3	TNT_Think_CSp	TNT_Think_CSp	0	5	0	0	0	0	5000	1	Cue35.jpg	-16	0	0	0	0	0	0
14	2023-04-13	10:04:41	10:47:22	10:47:22:907	62	4	TNT_Think_CSp	Intrusion	0	500	3000	0	81	1	803	1	How <b>often</b> did you <b>think</b> about the <b>scene</b>?   <center><br><b>NEVER (1)    BRIEFLY (2)   OFTEN (3) </b>	-16	0	0	0	0	0	0
14	2023-04-13	10:04:41	10:47:25	10:47:25:591	63	1	TNT_Object_CSp	fixation	0	5	500	0	0	1	495	1	+	-16	0	0	0	0	0	0
14	2023-04-13	10:04:41	10:47:26	10:47:26:604	63	2	TNT_Object_CSp	Passive	0	5	0	0	0	0	1000	1	VIEW	-16	0	0	0	0	0	0
14	2023-04-13	10:04:41	10:47:31	10:47:31:620	63	3	TNT_Object_CSp	TNT_Object_CSp	0	1500	0	0	0	0	5000	1	Object6.jpg	-16	0	0	0	0	0	0
14	2023-04-13	10:04:41	10:47:33	10:47:33:120	64	1	TNT_NoThink_CSp	fixation	0	5	1000	0	0	1	995	1	+	-9	0	0	0	0	0	0
14	2023-04-13	10:04:41	10:47:34	10:47:34:138	64	2	TNT_NoThink_CSp	NoThink	0	5	0	0	0	0	1000	1	DON'T THINK	-16	0	0	0	0	0	0
14	2023-04-13	10:04:41	10:47:39	10:47:39:154	64	3	TNT_NoThink_CSp	TNT_NoThink_CSp	0	5	0	0	0	0	5000	3	Cue1.jpg	-16	0	0	0	0	0	0
14	2023-04-13	10:04:41	10:47:40	10:47:40:683	64	4	TNT_NoThink_CSp	Intrusion	0	1500	3000	0	80	1	512	1	How <b>often</b> did you <b>think</b> about the <b>scene</b>?   <center><br><b>NEVER (1)    BRIEFLY (2)   OFTEN (3) </b>	-16	0	0	0	0	0	0
14	2023-04-13	10:04:41	10:47:43	10:47:43:658	65	1	TNT_NoThink_CSm	fixation	0	5	500	0	0	1	495	1	+	-3	0	0	0	0	0	0
14	2023-04-13	10:04:41	10:47:44	10:47:44:672	65	2	TNT_NoThink_CSm	NoThink	0	5	0	0	0	0	1000	1	DON'T THINK	-16	0	0	0	0	0	0
14	2023-04-13	10:04:41	10:47:49	10:47:49:688	65	3	TNT_NoThink_CSm	TNT_NoThink_CSm	0	5	0	0	0	0	5000	6	Cue22.jpg	-16	0	0	0	0	0	0
14	2023-04-13	10:04:41	10:47:50	10:47:50:363	65	4	TNT_NoThink_CSm	Intrusion	0	1000	3000	0	80	1	657	1	How <b>often</b> did you <b>think</b> about the <b>scene</b>?   <center><br><b>NEVER (1)    BRIEFLY (2)   OFTEN (3) </b>	-16	0	0	0	0	0	0
14	2023-04-13	10:04:41	10:47:53	10:47:53:692	66	1	Expectancy_rating	fixation	0	5	1000	0	0	1	995	1	+	-9	0	0	0	0	0	0
14	2023-04-13	10:04:41	10:48:03	10:48:03:587	66	2	Expectancy_rating	expectancy_rating	0	1500	0	0	50	0	9850	1	When you saw the <b>object</b>,   to what <b>degree (0-100%)</b> did you expect the <b>unpleasant sound to occur</b>?	-16	24	Cue24.jpg	-16	0	0	0
14	2023-04-13	10:04:41	10:48:06	10:48:06:573	67	1	Expectancy_rating	fixation	0	5	1500	0	0	1	1495	1	+	-8	0	0	0	0	0	0
14	2023-04-13	10:04:41	10:48:13	10:48:13:271	67	2	Expectancy_rating	expectancy_rating	0	500	0	0	90	0	7670	1	When you saw the <b>object</b>,   to what <b>degree (0-100%)</b> did you expect the <b>unpleasant sound to occur</b>?	-16	8	Cue8.jpg	-16	0	0	0
14	2023-04-13	10:04:41	10:48:14	10:48:14:271	68	1	Expectancy_rating	fixation	0	5	500	0	0	1	495	1	+	-13	0	0	0	0	0	0
14	2023-04-13	10:04:41	10:48:19	10:48:19:472	68	2	Expectancy_rating	expectancy_rating	0	1000	0	0	90	0	4177	1	When you saw the <b>object</b>,   to what <b>degree (0-100%)</b> did you expect the <b>unpleasant sound to occur</b>?	-11	25	Cue25.jpg	-11	0	0	0
14	2023-04-13	10:04:41	10:48:21	10:48:21:971	69	1	Expectancy_rating	fixation	0	5	1500	0	0	1	1495	1	+	-14	0	0	0	0	0	0
14	2023-04-13	10:04:41	10:48:26	10:48:26:506	69	2	Expectancy_rating	expectancy_rating	0	1500	0	0	90	0	4509	1	When you saw the <b>object</b>,   to what <b>degree (0-100%)</b> did you expect the <b>unpleasant sound to occur</b>?	-10	2	Cue2.jpg	-10	0	0	0
14	2023-04-13	10:04:41	10:48:28	10:48:28:04	70	1	Expectancy_rating	fixation	0	5	1000	0	0	1	995	1	+	-15	0	0	0	0	0	0
14	2023-04-13	10:04:41	10:48:32	10:48:32:955	70	2	Expectancy_rating	expectancy_rating	0	500	0	0	0	0	3899	1	When you saw the <b>object</b>,   to what <b>degree (0-100%)</b> did you expect the <b>unpleasant sound to occur</b>?	-11	43	Object3.jpg	-11	0	0	0
14	2023-04-13	10:04:41	10:48:33	10:48:33:938	71	1	Expectancy_rating	fixation	0	5	500	0	0	1	495	1	+	-14	0	0	0	0	0	0
14	2023-04-13	10:04:41	10:48:40	10:48:40:156	71	2	Expectancy_rating	expectancy_rating	0	1000	0	0	80	0	7190	1	When you saw the <b>object</b>,   to what <b>degree (0-100%)</b> did you expect the <b>unpleasant sound to occur</b>?	-16	19	Cue19.jpg	-16	0	0	0
14	2023-04-13	10:04:41	10:48:42	10:48:42:156	72	1	Expectancy_rating	fixation	0	5	1000	0	0	1	995	1	+	-14	0	0	0	0	0	0
14	2023-04-13	10:04:41	10:48:44	10:48:44:473	72	2	Expectancy_rating	expectancy_rating	0	500	0	0	50	0	1284	1	When you saw the <b>object</b>,   to what <b>degree (0-100%)</b> did you expect the <b>unpleasant sound to occur</b>?	-12	21	Cue21.jpg	-12	0	0	0
14	2023-04-13	10:04:41	10:48:46	10:48:46:472	73	1	Expectancy_rating	fixation	0	5	1500	0	0	1	1495	1	+	-15	0	0	0	0	0	0
14	2023-04-13	10:04:41	10:48:51	10:48:51:107	73	2	Expectancy_rating	expectancy_rating	0	1500	0	0	80	0	5615	1	When you saw the <b>object</b>,   to what <b>degree (0-100%)</b> did you expect the <b>unpleasant sound to occur</b>?	-12	38	Cue38.jpg	-12	0	0	0
14	2023-04-13	10:04:41	10:48:53	10:48:53:106	74	1	Expectancy_rating	fixation	0	5	500	0	0	1	495	1	+	-15	0	0	0	0	0	0
14	2023-04-13	10:04:41	10:48:58	10:48:58:408	74	2	Expectancy_rating	expectancy_rating	0	1000	0	0	90	0	4270	1	When you saw the <b>object</b>,   to what <b>degree (0-100%)</b> did you expect the <b>unpleasant sound to occur</b>?	-11	29	Cue29.jpg	-11	0	0	0
14	2023-04-13	10:04:41	10:49:00	10:49:00:907	75	1	Expectancy_rating	fixation	0	5	1500	0	0	1	1495	1	+	-14	0	0	0	0	0	0
14	2023-04-13	10:04:41	10:49:06	10:49:06:725	75	2	Expectancy_rating	expectancy_rating	0	1000	0	0	90	0	5789	1	When you saw the <b>object</b>,   to what <b>degree (0-100%)</b> did you expect the <b>unpleasant sound to occur</b>?	-11	31	Cue31.jpg	-11	0	0	0
14	2023-04-13	10:04:41	10:49:08	10:49:08:724	76	1	Expectancy_rating	fixation	0	5	1000	0	0	1	995	1	+	-10	0	0	0	0	0	0
14	2023-04-13	10:04:41	10:49:10	10:49:10:624	76	2	Expectancy_rating	expectancy_rating	0	500	0	0	50	0	1876	1	When you saw the <b>object</b>,   to what <b>degree (0-100%)</b> did you expect the <b>unpleasant sound to occur</b>?	-16	37	Cue37.jpg	-16	0	0	0
14	2023-04-13	10:04:41	10:49:12	10:49:12:625	77	1	Expectancy_rating	fixation	0	5	1500	0	0	1	1495	1	+	-9	0	0	0	0	0	0
14	2023-04-13	10:04:41	10:49:16	10:49:16:09	77	2	Expectancy_rating	expectancy_rating	0	1500	0	0	90	0	4352	1	When you saw the <b>object</b>,   to what <b>degree (0-100%)</b> did you expect the <b>unpleasant sound to occur</b>?	-16	9	Cue9.jpg	-16	0	0	0
14	2023-04-13	10:04:41	10:49:19	10:49:19:508	78	1	Expectancy_rating	fixation	0	5	1000	0	0	1	995	1	+	-15	0	0	0	0	0	0
14	2023-04-13	10:04:41	10:49:22	10:49:22:842	78	2	Expectancy_rating	expectancy_rating	0	1000	0	0	90	0	3284	1	When you saw the <b>object</b>,   to what <b>degree (0-100%)</b> did you expect the <b>unpleasant sound to occur</b>?	-16	10	Cue10.jpg	-16	0	0	0
14	2023-04-13	10:04:41	10:49:23	10:49:23:324	79	1	Expectancy_rating	fixation	0	5	500	0	0	1	495	1	+	-15	0	0	0	0	0	0
14	2023-04-13	10:04:41	10:49:27	10:49:27:076	79	2	Expectancy_rating	expectancy_rating	0	1500	0	0	90	0	3723	1	When you saw the <b>object</b>,   to what <b>degree (0-100%)</b> did you expect the <b>unpleasant sound to occur</b>?	-12	17	Cue17.jpg	-12	0	0	0
14	2023-04-13	10:04:41	10:49:30	10:49:30:075	80	1	Expectancy_rating	fixation	0	5	1500	0	0	1	1495	1	+	-15	0	0	0	0	0	0
14	2023-04-13	10:04:41	10:49:34	10:49:34:476	80	2	Expectancy_rating	expectancy_rating	0	500	0	0	50	0	3373	1	When you saw the <b>object</b>,   to what <b>degree (0-100%)</b> did you expect the <b>unpleasant sound to occur</b>?	-12	4	Cue4.jpg	-12	0	0	0
14	2023-04-13	10:04:41	10:49:35	10:49:35:975	81	1	Expectancy_rating	fixation	0	5	1000	0	0	1	995	1	+	-14	0	0	0	0	0	0
14	2023-04-13	10:04:41	10:49:39	10:49:39:126	81	2	Expectancy_rating	expectancy_rating	0	1500	0	0	90	0	4128	1	When you saw the <b>object</b>,   to what <b>degree (0-100%)</b> did you expect the <b>unpleasant sound to occur</b>?	-12	1	Cue1.jpg	-12	0	0	0
14	2023-04-13	10:04:41	10:49:41	10:49:41:125	82	1	Expectancy_rating	fixation	0	5	500	0	0	1	495	1	+	-14	0	0	0	0	0	0
14	2023-04-13	10:04:41	10:49:47	10:49:47:510	82	2	Expectancy_rating	expectancy_rating	0	1000	0	0	90	0	5362	1	When you saw the <b>object</b>,   to what <b>degree (0-100%)</b> did you expect the <b>unpleasant sound to occur</b>?	-11	30	Cue30.jpg	-11	0	0	0
14	2023-04-13	10:04:41	10:49:49	10:49:49:09	83	1	Expectancy_rating	fixation	0	5	1500	0	0	1	1495	1	+	-15	0	0	0	0	0	0
14	2023-04-13	10:04:41	10:49:54	10:49:54:027	83	2	Expectancy_rating	expectancy_rating	0	500	0	0	0	0	4967	1	When you saw the <b>object</b>,   to what <b>degree (0-100%)</b> did you expect the <b>unpleasant sound to occur</b>?	-10	42	Object2.jpg	-10	0	0	0
14	2023-04-13	10:04:41	10:49:56	10:49:56:509	84	1	Expectancy_rating	fixation	0	5	1000	0	0	1	995	1	+	-15	0	0	0	0	0	0
14	2023-04-13	10:04:41	10:49:58	10:49:58:895	84	2	Expectancy_rating	expectancy_rating	0	1500	0	0	50	0	2354	1	When you saw the <b>object</b>,   to what <b>degree (0-100%)</b> did you expect the <b>unpleasant sound to occur</b>?	-10	22	Cue22.jpg	-10	0	0	0
14	2023-04-13	10:04:41	10:50:00	10:50:00:895	85	1	Expectancy_rating	fixation	0	5	500	0	0	1	495	1	+	-13	0	0	0	0	0	0
14	2023-04-13	10:04:41	10:50:02	10:50:02:127	85	2	Expectancy_rating	expectancy_rating	0	500	0	0	50	0	2179	1	When you saw the <b>object</b>,   to what <b>degree (0-100%)</b> did you expect the <b>unpleasant sound to occur</b>?	-16	40	Cue40.jpg	-16	0	0	0
14	2023-04-13	10:04:41	10:50:03	10:50:03:114	86	1	Expectancy_rating	fixation	0	5	500	0	0	1	495	1	+	-8	0	0	0	0	0	0
14	2023-04-13	10:04:41	10:50:07	10:50:07:861	86	2	Expectancy_rating	expectancy_rating	0	1000	0	0	90	0	3730	1	When you saw the <b>object</b>,   to what <b>degree (0-100%)</b> did you expect the <b>unpleasant sound to occur</b>?	-16	20	Cue20.jpg	-16	0	0	0
14	2023-04-13	10:04:41	10:50:10	10:50:10:360	87	1	Expectancy_rating	fixation	0	5	1500	0	0	1	1495	1	+	-15	0	0	0	0	0	0
14	2023-04-13	10:04:41	10:50:11	10:50:11:312	87	2	Expectancy_rating	expectancy_rating	0	1500	0	0	50	0	1927	1	When you saw the <b>object</b>,   to what <b>degree (0-100%)</b> did you expect the <b>unpleasant sound to occur</b>?	-11	6	Cue6.jpg	-11	0	0	0
14	2023-04-13	10:04:41	10:50:14	10:50:14:811	88	1	Expectancy_rating	fixation	0	5	1000	0	0	1	995	1	+	-15	0	0	0	0	0	0
14	2023-04-13	10:04:41	10:50:20	10:50:20:195	88	2	Expectancy_rating	expectancy_rating	0	1000	0	0	10	0	6333	1	When you saw the <b>object</b>,   to what <b>degree (0-100%)</b> did you expect the <b>unpleasant sound to occur</b>?	-11	26	Cue26.jpg	-11	0	0	0
14	2023-04-13	10:04:41	10:50:22	10:50:22:678	89	1	Expectancy_rating	fixation	0	5	500	0	0	1	495	1	+	-15	0	0	0	0	0	0
14	2023-04-13	10:04:41	10:50:26	10:50:26:946	89	2	Expectancy_rating	expectancy_rating	0	500	0	0	10	0	4242	1	When you saw the <b>object</b>,   to what <b>degree (0-100%)</b> did you expect the <b>unpleasant sound to occur</b>?	-12	12	Cue12.jpg	-12	0	0	0
14	2023-04-13	10:04:41	10:50:28	10:50:28:445	90	1	Expectancy_rating	fixation	0	5	1000	0	0	1	995	1	+	-15	0	0	0	0	0	0
14	2023-04-13	10:04:41	10:50:31	10:50:31:379	90	2	Expectancy_rating	expectancy_rating	0	1500	0	0	50	0	2883	1	When you saw the <b>object</b>,   to what <b>degree (0-100%)</b> did you expect the <b>unpleasant sound to occur</b>?	-16	13	Cue13.jpg	-16	0	0	0
14	2023-04-13	10:04:41	10:50:34	10:50:34:362	91	1	Expectancy_rating	fixation	0	5	1500	0	0	1	1495	1	+	-15	0	0	0	0	0	0
14	2023-04-13	10:04:41	10:50:38	10:50:38:580	91	2	Expectancy_rating	expectancy_rating	0	500	0	0	0	0	4190	1	When you saw the <b>object</b>,   to what <b>degree (0-100%)</b> did you expect the <b>unpleasant sound to occur</b>?	-12	46	Object6.jpg	-12	0	0	0
14	2023-04-13	10:04:41	10:50:39	10:50:39:579	92	1	Expectancy_rating	fixation	0	5	500	0	0	1	495	1	+	-15	0	0	0	0	0	0
14	2023-04-13	10:04:41	10:50:41	10:50:41:680	92	2	Expectancy_rating	expectancy_rating	0	1000	0	0	50	0	2069	1	When you saw the <b>object</b>,   to what <b>degree (0-100%)</b> did you expect the <b>unpleasant sound to occur</b>?	-12	39	Cue39.jpg	-12	0	0	0
14	2023-04-13	10:04:41	10:50:43	10:50:43:179	93	1	Expectancy_rating	fixation	0	5	1500	0	0	1	1495	1	+	-15	0	0	0	0	0	0
14	2023-04-13	10:04:41	10:50:47	10:50:47:830	93	2	Expectancy_rating	expectancy_rating	0	500	0	0	90	0	3628	1	When you saw the <b>object</b>,   to what <b>degree (0-100%)</b> did you expect the <b>unpleasant sound to occur</b>?	-12	14	Cue14.jpg	-12	0	0	0
14	2023-04-13	10:04:41	10:50:48	10:50:48:330	94	1	Expectancy_rating	fixation	0	5	1000	0	0	1	995	1	+	-15	0	0	0	0	0	0
14	2023-04-13	10:04:41	10:50:51	10:50:51:381	94	2	Expectancy_rating	expectancy_rating	0	1500	0	0	50	0	2030	1	When you saw the <b>object</b>,   to what <b>degree (0-100%)</b> did you expect the <b>unpleasant sound to occur</b>?	-11	11	Cue11.jpg	-11	0	0	0
14	2023-04-13	10:04:41	10:50:54	10:50:54:380	95	1	Expectancy_rating	fixation	0	5	1500	0	0	1	1495	1	+	-12	0	0	0	0	0	0
14	2023-04-13	10:04:41	10:50:58	10:50:58:598	95	2	Expectancy_rating	expectancy_rating	0	1000	0	0	90	0	4188	1	When you saw the <b>object</b>,   to what <b>degree (0-100%)</b> did you expect the <b>unpleasant sound to occur</b>?	-16	7	Cue7.jpg	-16	0	0	0
14	2023-04-13	10:04:41	10:51:00	10:51:00:597	96	1	Expectancy_rating	fixation	0	5	1000	0	0	1	995	1	+	-14	0	0	0	0	0	0
14	2023-04-13	10:04:41	10:51:04	10:51:04:098	96	2	Expectancy_rating	expectancy_rating	0	1000	0	0	90	0	4451	1	When you saw the <b>object</b>,   to what <b>degree (0-100%)</b> did you expect the <b>unpleasant sound to occur</b>?	-12	3	Cue3.jpg	-12	0	0	0
14	2023-04-13	10:04:41	10:51:06	10:51:06:580	97	1	Expectancy_rating	fixation	0	5	500	0	0	1	495	1	+	-15	0	0	0	0	0	0
14	2023-04-13	10:04:41	10:51:11	10:51:11:382	97	2	Expectancy_rating	expectancy_rating	0	1500	0	0	90	0	4779	1	When you saw the <b>object</b>,   to what <b>degree (0-100%)</b> did you expect the <b>unpleasant sound to occur</b>?	-9	32	Cue32.jpg	-9	0	0	0
14	2023-04-13	10:04:41	10:51:14	10:51:14:381	98	1	Expectancy_rating	fixation	0	5	1500	0	0	1	1495	1	+	-14	0	0	0	0	0	0
14	2023-04-13	10:04:41	10:51:19	10:51:19:716	98	2	Expectancy_rating	expectancy_rating	0	500	0	0	90	0	5307	1	When you saw the <b>object</b>,   to what <b>degree (0-100%)</b> did you expect the <b>unpleasant sound to occur</b>?	-16	23	Cue23.jpg	-16	0	0	0
14	2023-04-13	10:04:41	10:51:20	10:51:20:715	99	1	Expectancy_rating	fixation	0	5	500	0	0	1	495	1	+	-14	0	0	0	0	0	0
14	2023-04-13	10:04:41	10:51:25	10:51:25:916	99	2	Expectancy_rating	expectancy_rating	0	500	0	0	10	0	5173	1	When you saw the <b>object</b>,   to what <b>degree (0-100%)</b> did you expect the <b>unpleasant sound to occur</b>?	-11	47	Object7.jpg	-11	0	0	0
14	2023-04-13	10:04:41	10:51:27	10:51:27:414	100	1	Expectancy_rating	fixation	0	5	1000	0	0	1	995	1	+	-15	0	0	0	0	0	0
14	2023-04-13	10:04:41	10:51:35	10:51:35:999	100	2	Expectancy_rating	expectancy_rating	0	1000	0	0	50	0	8552	1	When you saw the <b>object</b>,   to what <b>degree (0-100%)</b> did you expect the <b>unpleasant sound to occur</b>?	-9	28	Cue28.jpg	-9	0	0	0
14	2023-04-13	10:04:41	10:51:38	10:51:38:498	101	1	Expectancy_rating	fixation	0	5	1500	0	0	1	1495	1	+	-15	0	0	0	0	0	0
14	2023-04-13	10:04:41	10:51:42	10:51:42:351	101	2	Expectancy_rating	expectancy_rating	0	1500	0	0	90	0	3821	1	When you saw the <b>object</b>,   to what <b>degree (0-100%)</b> did you expect the <b>unpleasant sound to occur</b>?	-12	33	Cue33.jpg	-12	0	0	0
14	2023-04-13	10:04:41	10:51:44	10:51:44:851	102	1	Expectancy_rating	fixation	0	5	1000	0	0	1	995	1	+	-10	0	0	0	0	0	0
14	2023-04-13	10:04:41	10:51:49	10:51:49:467	102	2	Expectancy_rating	expectancy_rating	0	1000	0	0	90	0	4598	1	When you saw the <b>object</b>,   to what <b>degree (0-100%)</b> did you expect the <b>unpleasant sound to occur</b>?	-16	34	Cue34.jpg	-16	0	0	0
14	2023-04-13	10:04:41	10:51:50	10:51:50:966	103	1	Expectancy_rating	fixation	0	5	500	0	0	1	495	1	+	-15	0	0	0	0	0	0
14	2023-04-13	10:04:41	10:51:55	10:51:55:084	103	2	Expectancy_rating	expectancy_rating	0	500	0	0	10	0	5097	1	When you saw the <b>object</b>,   to what <b>degree (0-100%)</b> did you expect the <b>unpleasant sound to occur</b>?	-10	48	Object8.jpg	-10	0	0	0
14	2023-04-13	10:04:41	10:51:57	10:51:57:583	104	1	Expectancy_rating	fixation	0	5	1000	0	0	1	995	1	+	-15	0	0	0	0	0	0
14	2023-04-13	10:04:41	10:52:01	10:52:01:635	104	2	Expectancy_rating	expectancy_rating	0	1500	0	0	10	0	4024	1	When you saw the <b>object</b>,   to what <b>degree (0-100%)</b> did you expect the <b>unpleasant sound to occur</b>?	-10	41	Object1.jpg	-10	0	0	0
14	2023-04-13	10:04:41	10:52:03	10:52:03:634	105	1	Expectancy_rating	fixation	0	5	500	0	0	1	495	1	+	-14	0	0	0	0	0	0
14	2023-04-13	10:04:41	10:52:05	10:52:05:051	105	2	Expectancy_rating	expectancy_rating	0	500	0	0	50	0	2390	1	When you saw the <b>object</b>,   to what <b>degree (0-100%)</b> did you expect the <b>unpleasant sound to occur</b>?	-12	35	Cue35.jpg	-12	0	0	0
14	2023-04-13	10:04:41	10:52:07	10:52:07:050	106	1	Expectancy_rating	fixation	0	5	1500	0	0	1	1495	1	+	-15	0	0	0	0	0	0
14	2023-04-13	10:04:41	10:52:12	10:52:12:619	106	2	Expectancy_rating	expectancy_rating	0	1000	0	0	90	0	4541	1	When you saw the <b>object</b>,   to what <b>degree (0-100%)</b> did you expect the <b>unpleasant sound to occur</b>?	-12	15	Cue15.jpg	-12	0	0	0
14	2023-04-13	10:04:41	10:52:14	10:52:14:118	107	1	Expectancy_rating	fixation	0	5	1500	0	0	1	1495	1	+	-15	0	0	0	0	0	0
14	2023-04-13	10:04:41	10:52:18	10:52:18:686	107	2	Expectancy_rating	expectancy_rating	0	1500	0	0	90	0	3538	1	When you saw the <b>object</b>,   to what <b>degree (0-100%)</b> did you expect the <b>unpleasant sound to occur</b>?	-16	18	Cue18.jpg	-16	0	0	0
14	2023-04-13	10:04:41	10:52:20	10:52:20:185	108	1	Expectancy_rating	fixation	0	5	1000	0	0	1	995	1	+	-14	0	0	0	0	0	0
14	2023-04-13	10:04:41	10:52:24	10:52:24:719	108	2	Expectancy_rating	expectancy_rating	0	1500	0	0	90	0	3502	1	When you saw the <b>object</b>,   to what <b>degree (0-100%)</b> did you expect the <b>unpleasant sound to occur</b>?	-10	5	Cue5.jpg	-10	0	0	0
14	2023-04-13	10:04:41	10:52:26	10:52:26:718	109	1	Expectancy_rating	fixation	0	5	500	0	0	1	495	1	+	-15	0	0	0	0	0	0
14	2023-04-13	10:04:41	10:52:32	10:52:32:803	109	2	Expectancy_rating	expectancy_rating	0	500	0	0	90	0	6057	1	When you saw the <b>object</b>,   to what <b>degree (0-100%)</b> did you expect the <b>unpleasant sound to occur</b>?	-10	27	Cue27.jpg	-10	0	0	0
14	2023-04-13	10:04:41	10:52:33	10:52:33:304	110	1	Expectancy_rating	fixation	0	5	1000	0	0	1	995	1	+	-10	0	0	0	0	0	0
14	2023-04-13	10:04:41	10:52:39	10:52:39:521	110	2	Expectancy_rating	expectancy_rating	0	1000	0	0	0	0	5185	1	When you saw the <b>object</b>,   to what <b>degree (0-100%)</b> did you expect the <b>unpleasant sound to occur</b>?	-16	44	Object4.jpg	-16	0	0	0
14	2023-04-13	10:04:41	10:52:41	10:52:41:019	111	1	Expectancy_rating	fixation	0	5	1500	0	0	1	1495	1	+	-14	0	0	0	0	0	0
14	2023-04-13	10:04:41	10:52:44	10:52:44:604	111	2	Expectancy_rating	expectancy_rating	0	1000	0	0	50	0	2564	1	When you saw the <b>object</b>,   to what <b>degree (0-100%)</b> did you expect the <b>unpleasant sound to occur</b>?	-11	16	Cue16.jpg	-11	0	0	0
14	2023-04-13	10:04:41	10:52:45	10:52:45:103	112	1	Expectancy_rating	fixation	0	5	500	0	0	1	495	1	+	-15	0	0	0	0	0	0
14	2023-04-13	10:04:41	10:52:50	10:52:50:037	112	2	Expectancy_rating	expectancy_rating	0	500	0	0	90	0	4904	1	When you saw the <b>object</b>,   to what <b>degree (0-100%)</b> did you expect the <b>unpleasant sound to occur</b>?	-11	36	Cue36.jpg	-11	0	0	0
14	2023-04-13	10:04:41	10:52:52	10:52:52:036	113	1	Expectancy_rating	fixation	0	5	1500	0	0	1	1495	1	+	-15	0	0	0	0	0	0
14	2023-04-13	10:04:41	10:52:56	10:52:56:522	113	2	Expectancy_rating	expectancy_rating	0	1500	0	0	0	0	3459	1	When you saw the <b>object</b>,   to what <b>degree (0-100%)</b> did you expect the <b>unpleasant sound to occur</b>?	-10	45	Object5.jpg	-10	0	0	0
14	2023-04-13	10:04:41	10:53:27	10:53:27:315	114	1	countdown	instructions	0	5	0	0	57	0	30258	1	<center><br><br> <b>WATCH CALLIBRATION</b>.                <br><br><br><br>In a couple of seconds a <b>countdown</b> will start that counts down from 3 to 1,       <br><br>after which the screen will show the instruction <b>PRESS BUTTON</b>.       <br><br><b>As soon as you see that screen</b>, you must shortly press the button on your watch.       <br><br> <br><br> Press SPACE  to continue.	-14	0	0	0	0	0	0
14	2023-04-13	10:04:41	10:53:28	10:53:28:325	114	2	countdown	countdown_3	0	5	0	0	0	0	1000	1	3	-16	0	0	0	0	0	0
14	2023-04-13	10:04:41	10:53:30	10:53:30:342	114	3	countdown	countdown_2	0	5	0	0	0	0	1000	1	2	-16	0	0	0	0	0	0
14	2023-04-13	10:04:41	10:53:31	10:53:31:359	114	4	countdown	countdown_1	0	5	0	0	0	0	1000	1	1	-16	0	0	0	0	0	0
14	2023-04-13	10:04:41	10:53:32	10:53:32:375	114	5	countdown	press_button	0	5	0	0	0	0	1000	1	PRESS BUTTON NOW	-16	0	0	0	0	0	0
14	2023-04-13	10:04:41	10:53:47	10:53:47:409	115	1	continue_TNT	continue_TNT	0	5	0	0	0	0	15000	1	<center> <br><br><br> We will now continue with the next block of the attention task.   <br><br><br><center>Keep your fingers balanced on the <b>1, 2 and 3 </b>on the keyboard throughout the task   <br><br>to give the rating how well you were <b>able to think</b> or <b>not think</b> (1 = NEVER, 2 = BRIEFLY, 3 = OFTEN).	-16	0	0	0	0	0	0
14	2023-04-13	10:04:41	10:53:48	10:53:48:410	116	1	TNT_NoThink_CSp	fixation	0	5	1000	0	0	1	995	1	+	-8	0	0	0	0	0	0
14	2023-04-13	10:04:41	10:53:49	10:53:49:427	116	2	TNT_NoThink_CSp	NoThink	0	5	0	0	0	0	1000	1	DON'T THINK	-16	0	0	0	0	0	0
14	2023-04-13	10:04:41	10:53:54	10:53:54:443	116	3	TNT_NoThink_CSp	TNT_NoThink_CSp	0	5	0	0	0	0	5000	5	Cue32.jpg	-16	0	0	0	0	0	0
14	2023-04-13	10:04:41	10:53:54	10:53:54:099	116	4	TNT_NoThink_CSp	Intrusion	0	1500	3000	0	80	1	638	1	How <b>often</b> did you <b>think</b> about the <b>scene</b>?   <center><br><b>NEVER (1)    BRIEFLY (2)   OFTEN (3) </b>	-16	0	0	0	0	0	0
14	2023-04-13	10:04:41	10:53:57	10:53:57:947	117	1	TNT_Think_CSp	fixation	0	5	500	0	0	1	495	1	+	-2	0	0	0	0	0	0
14	2023-04-13	10:04:41	10:53:58	10:53:58:960	117	2	TNT_Think_CSp	Think	0	5	0	0	0	0	1000	1	THINK	-16	0	0	0	0	0	0
14	2023-04-13	10:04:41	10:54:03	10:54:03:977	117	3	TNT_Think_CSp	TNT_Think_CSp	0	5	0	0	0	0	5000	6	Cue7.jpg	-16	0	0	0	0	0	0
14	2023-04-13	10:04:41	10:54:04	10:54:04:523	117	4	TNT_Think_CSp	Intrusion	0	1000	3000	0	81	1	528	1	How <b>often</b> did you <b>think</b> about the <b>scene</b>?   <center><br><b>NEVER (1)    BRIEFLY (2)   OFTEN (3) </b>	-16	0	0	0	0	0	0
14	2023-04-13	10:04:41	10:54:07	10:54:07:981	118	1	TNT_Think_CSp	fixation	0	5	1000	0	0	1	995	1	+	-9	0	0	0	0	0	0
14	2023-04-13	10:04:41	10:54:08	10:54:08:994	118	2	TNT_Think_CSp	Think	0	5	0	0	0	0	1000	1	THINK	-16	0	0	0	0	0	0
14	2023-04-13	10:04:41	10:54:13	10:54:13:011	118	3	TNT_Think_CSp	TNT_Think_CSp	0	5	0	0	0	0	5000	2	Cue33.jpg	-16	0	0	0	0	0	0
14	2023-04-13	10:04:41	10:54:14	10:54:14:795	118	4	TNT_Think_CSp	Intrusion	0	500	3000	0	81	1	766	1	How <b>often</b> did you <b>think</b> about the <b>scene</b>?   <center><br><b>NEVER (1)    BRIEFLY (2)   OFTEN (3) </b>	-16	0	0	0	0	0	0
14	2023-04-13	10:04:41	10:54:17	10:54:17:515	119	1	TNT_Think_CSm	fixation	0	5	500	0	0	1	495	1	+	-8	0	0	0	0	0	0
14	2023-04-13	10:04:41	10:54:18	10:54:18:528	119	2	TNT_Think_CSm	Think	0	5	0	0	0	0	1000	1	THINK	-16	0	0	0	0	0	0
14	2023-04-13	10:04:41	10:54:23	10:54:23:545	119	3	TNT_Think_CSm	TNT_Think_CSm	0	5	0	0	0	0	5000	2	Cue19.jpg	-16	0	0	0	0	0	0
14	2023-04-13	10:04:41	10:54:23	10:54:23:091	119	4	TNT_Think_CSm	Intrusion	0	1000	3000	0	81	1	528	1	How <b>often</b> did you <b>think</b> about the <b>scene</b>?   <center><br><b>NEVER (1)    BRIEFLY (2)   OFTEN (3) </b>	-16	0	0	0	0	0	0
14	2023-04-13	10:04:41	10:54:27	10:54:27:048	120	1	TNT_NoThink_CSm	fixation	0	5	1500	0	0	1	1495	1	+	-8	0	0	0	0	0	0
14	2023-04-13	10:04:41	10:54:28	10:54:28:062	120	2	TNT_NoThink_CSm	NoThink	0	5	0	0	0	0	1000	1	DON'T THINK	-16	0	0	0	0	0	0
14	2023-04-13	10:04:41	10:54:33	10:54:33:079	120	3	TNT_NoThink_CSm	TNT_NoThink_CSm	0	5	0	0	0	0	5000	4	Cue2.jpg	-16	0	0	0	0	0	0
14	2023-04-13	10:04:41	10:54:34	10:54:34:731	120	4	TNT_NoThink_CSm	Intrusion	0	1500	3000	0	80	1	635	1	How <b>often</b> did you <b>think</b> about the <b>scene</b>?   <center><br><b>NEVER (1)    BRIEFLY (2)   OFTEN (3) </b>	-16	0	0	0	0	0	0
14	2023-04-13	10:04:41	10:54:37	10:54:37:582	121	1	TNT_Object_CSp	fixation	0	5	500	0	0	1	495	1	+	-8	0	0	0	0	0	0
14	2023-04-13	10:04:41	10:54:38	10:54:38:596	121	2	TNT_Object_CSp	Passive	0	5	0	0	0	0	1000	1	VIEW	-16	0	0	0	0	0	0
14	2023-04-13	10:04:41	10:54:43	10:54:43:613	121	3	TNT_Object_CSp	TNT_Object_CSp	0	1000	0	0	0	0	5000	4	Object2.jpg	-16	0	0	0	0	0	0
14	2023-04-13	10:04:41	10:54:45	10:54:45:113	122	1	TNT_NoThink_CSm	fixation	0	5	1500	0	0	1	1495	1	+	-9	0	0	0	0	0	0
14	2023-04-13	10:04:41	10:54:46	10:54:46:130	122	2	TNT_NoThink_CSm	NoThink	0	5	0	0	0	0	1000	1	DON'T THINK	-16	0	0	0	0	0	0
14	2023-04-13	10:04:41	10:54:51	10:54:51:147	122	3	TNT_NoThink_CSm	TNT_NoThink_CSm	0	5	0	0	0	0	5000	1	Cue16.jpg	-16	0	0	0	0	0	0
14	2023-04-13	10:04:41	10:54:52	10:54:52:683	122	4	TNT_NoThink_CSm	Intrusion	0	500	3000	0	80	1	519	1	How <b>often</b> did you <b>think</b> about the <b>scene</b>?   <center><br><b>NEVER (1)    BRIEFLY (2)   OFTEN (3) </b>	-16	0	0	0	0	0	0
14	2023-04-13	10:04:41	10:54:55	10:54:55:151	123	1	TNT_Think_CSm	fixation	0	5	1000	0	0	1	995	1	+	-9	0	0	0	0	0	0
14	2023-04-13	10:04:41	10:54:56	10:54:56:164	123	2	TNT_Think_CSm	Think	0	5	0	0	0	0	1000	1	THINK	-16	0	0	0	0	0	0
14	2023-04-13	10:04:41	10:55:01	10:55:01:180	123	3	TNT_Think_CSm	TNT_Think_CSm	0	5	0	0	0	0	5000	1	Cue27.jpg	-16	0	0	0	0	0	0
14	2023-04-13	10:04:41	10:55:02	10:55:02:619	123	4	TNT_Think_CSm	Intrusion	0	500	3000	0	81	1	421	1	How <b>often</b> did you <b>think</b> about the <b>scene</b>?   <center><br><b>NEVER (1)    BRIEFLY (2)   OFTEN (3) </b>	-16	0	0	0	0	0	0
14	2023-04-13	10:04:41	10:55:05	10:55:05:185	124	1	TNT_NoThink_CSp	fixation	0	5	1000	0	0	1	995	1	+	-16	0	0	0	0	0	0
14	2023-04-13	10:04:41	10:55:06	10:55:06:198	124	2	TNT_NoThink_CSp	NoThink	0	5	0	0	0	0	1000	1	DON'T THINK	-16	0	0	0	0	0	0
14	2023-04-13	10:04:41	10:55:11	10:55:11:215	124	3	TNT_NoThink_CSp	TNT_NoThink_CSp	0	5	0	0	0	0	5000	1	Cue20.jpg	-16	0	0	0	0	0	0
14	2023-04-13	10:04:41	10:55:13	10:55:13:339	124	4	TNT_NoThink_CSp	Intrusion	0	1000	3000	0	80	1	1107	1	How <b>often</b> did you <b>think</b> about the <b>scene</b>?   <center><br><b>NEVER (1)    BRIEFLY (2)   OFTEN (3) </b>	-16	0	0	0	0	0	0
14	2023-04-13	10:04:41	10:55:15	10:55:15:719	125	1	TNT_Object_CSm	fixation	0	5	500	0	0	1	495	1	+	-16	0	0	0	0	0	0
14	2023-04-13	10:04:41	10:55:16	10:55:16:732	125	2	TNT_Object_CSm	Passive	0	5	0	0	0	0	1000	1	VIEW	-16	0	0	0	0	0	0
