subject	date	time	currenttime	currenttime_plus_ms	blocknum	trialnum	blockcode	trialcode	pretrialpause	posttrialpause	trialduration	trialtimeout	response	correct	latency	stimulusnumber1	stimulusitem1	stimulusonset1	stimulusnumber2	stimulusitem2	stimulusonset2	stimulusnumber3	stimulusitem3	stimulusonset3
18	2023-04-19	15:41:47	15:42:14	15:42:14:295	1	1	countdown	instructions	0	5	0	0	57	0	1993	1	<center><br><br> <b>WATCH CALLIBRATION</b>.                <br><br><br><br>In a couple of seconds a <b>countdown</b> will start that counts down from 3 to 1,       <br><br>after which the screen will show the instruction <b>PRESS BUTTON</b>.       <br><br><b>As soon as you see that screen</b>, you must shortly press the button on your watch.       <br><br> <br><br> Press SPACE  to continue.	-16	0	0	0	0	0	0
18	2023-04-19	15:41:47	15:42:15	15:42:15:319	1	2	countdown	countdown_3	0	5	0	0	0	0	1000	1	3	-16	0	0	0	0	0	0
18	2023-04-19	15:41:47	15:42:16	15:42:16:336	1	3	countdown	countdown_2	0	5	0	0	0	0	1000	1	2	-16	0	0	0	0	0	0
18	2023-04-19	15:41:47	15:42:17	15:42:17:352	1	4	countdown	countdown_1	0	5	0	0	0	0	1000	1	1	-16	0	0	0	0	0	0
18	2023-04-19	15:41:47	15:42:18	15:42:18:369	1	5	countdown	press_button	0	5	0	0	0	0	1000	1	PRESS BUTTON NOW	-16	0	0	0	0	0	0
18	2023-04-19	15:41:47	15:46:25	15:46:25:040	2	1	Rest	Rest	0	5	0	0	0	0	180000	1	+	-9	0	0	0	0	0	0
18	2023-04-19	15:41:47	15:46:29	15:46:29:061	3	1	countdown	instructions	0	5	0	0	57	0	3977	1	<center><br><br> <b>WATCH CALLIBRATION</b>.                <br><br><br><br>In a couple of seconds a <b>countdown</b> will start that counts down from 3 to 1,       <br><br>after which the screen will show the instruction <b>PRESS BUTTON</b>.       <br><br><b>As soon as you see that screen</b>, you must shortly press the button on your watch.       <br><br> <br><br> Press SPACE  to continue.	-5	0	0	0	0	0	0
18	2023-04-19	15:41:47	15:46:30	15:46:30:100	3	2	countdown	countdown_3	0	5	0	0	0	0	1000	1	3	-9	0	0	0	0	0	0
18	2023-04-19	15:41:47	15:46:31	15:46:31:117	3	3	countdown	countdown_2	0	5	0	0	0	0	1000	1	2	-16	0	0	0	0	0	0
18	2023-04-19	15:41:47	15:46:32	15:46:32:134	3	4	countdown	countdown_1	0	5	0	0	0	0	1000	1	1	-16	0	0	0	0	0	0
18	2023-04-19	15:41:47	15:46:33	15:46:33:150	3	5	countdown	press_button	0	5	0	0	0	0	1000	1	PRESS BUTTON NOW	-16	0	0	0	0	0	0
18	2023-04-19	15:41:47	15:47:07	15:47:07:504	2	1	PracticeItems_Think	fixation	0	5	1500	0	0	1	1495	1	+	-16	0	0	0	0	0	0
18	2023-04-19	15:41:47	15:47:12	15:47:12:534	2	2	PracticeItems_Think	PracticeItems_Think	0	5	0	0	0	0	5000	1	+	-16	2	Cue38.jpg	-16	2	Target38.jpg	-16
18	2023-04-19	15:41:47	15:47:20	15:47:20:816	2	3	PracticeItems_Think	valence	0	5	0	0	10	0	7218	1	I found these images to be...	-2	0	0	0	0	0	0
18	2023-04-19	15:41:47	15:47:25	15:47:25:483	2	4	PracticeItems_Think	expectancy	0	1000	0	0	14	0	5581	1	When you saw the <b>object-scene</b>,   to what <b>degree (0-100%)</b> did you expect the <b>unpleasant sound to occur</b>?	-7	0	0	0	0	0	0
18	2023-04-19	15:41:47	15:47:27	15:47:27:969	3	1	Reminder_NoThink_CSp	fixation	0	5	500	0	0	1	495	1	+	-9	0	0	0	0	0	0
18	2023-04-19	15:41:47	15:47:32	15:47:32:986	3	2	Reminder_NoThink_CSp	NoThink_CSp	0	5	0	0	0	0	5000	1	+	-16	5	Cue32.jpg	-16	5	Target32.jpg	-16
18	2023-04-19	15:41:47	15:47:36	15:47:36:00	3	3	Reminder_NoThink_CSp	valence	0	5	0	0	21	0	3960	1	I found these images to be...	-16	0	0	0	0	0	0
18	2023-04-19	15:41:47	15:47:38	15:47:38:701	3	4	Reminder_NoThink_CSp	expectancy	0	500	0	0	100	0	2637	1	When you saw the <b>object-scene</b>,   to what <b>degree (0-100%)</b> did you expect the <b>unpleasant sound to occur</b>?	-7	0	0	0	0	0	0
18	2023-04-19	15:41:47	15:47:40	15:47:40:200	4	1	Reminder_Objects_CSm	fixation	0	5	1000	0	0	1	995	1	+	-15	0	0	0	0	0	0
18	2023-04-19	15:41:47	15:47:45	15:47:45:218	4	2	Reminder_Objects_CSm	Objects_CSm	0	5	0	0	0	0	5000	3	Object4.jpg	-16	0	0	0	0	0	0
18	2023-04-19	15:41:47	15:47:53	15:47:53:452	4	3	Reminder_Objects_CSm	expectancy_object	0	500	0	0	0	0	8205	1	When you saw the <b>object</b>,   to what <b>degree (0-100%)</b> did you expect the <b>unpleasant sound to occur</b>?	-16	0	0	0	0	0	0
18	2023-04-19	15:41:47	15:47:55	15:47:55:451	5	1	Reminder_NoThink_CSp	fixation	0	5	1500	0	0	1	1495	1	+	-15	0	0	0	0	0	0
18	2023-04-19	15:41:47	15:48:00	15:48:00:468	5	2	Reminder_NoThink_CSp	NoThink_CSp	0	5	0	0	0	0	5000	1	+	-16	1	Cue10.jpg	-16	1	Target10.jpg	-16
18	2023-04-19	15:41:47	15:48:06	15:48:06:869	5	3	Reminder_NoThink_CSp	valence	0	5	0	0	12	0	5379	1	I found these images to be...	-16	0	0	0	0	0	0
18	2023-04-19	15:41:47	15:48:11	15:48:11:086	5	4	Reminder_NoThink_CSp	expectancy	0	1500	0	0	32	0	5178	1	When you saw the <b>object-scene</b>,   to what <b>degree (0-100%)</b> did you expect the <b>unpleasant sound to occur</b>?	-10	0	0	0	0	0	0
18	2023-04-19	15:41:47	15:48:13	15:48:13:585	6	1	Reminder_Think_CSp	fixation	0	5	1000	0	0	1	995	1	+	-15	0	0	0	0	0	0
18	2023-04-19	15:41:47	15:48:18	15:48:18:603	6	2	Reminder_Think_CSp	Think_CSp	0	5	0	0	0	0	5000	1	+	-16	6	Cue29.jpg	-16	6	Target29.jpg	-16
18	2023-04-19	15:41:47	15:48:26	15:48:26:537	6	3	Reminder_Think_CSp	valence	0	5	0	0	32	0	7884	1	I found these images to be...	-16	0	0	0	0	0	0
18	2023-04-19	15:41:47	15:48:29	15:48:29:087	6	4	Reminder_Think_CSp	expectancy	0	1000	0	0	77	0	2485	1	When you saw the <b>object-scene</b>,   to what <b>degree (0-100%)</b> did you expect the <b>unpleasant sound to occur</b>?	-7	0	0	0	0	0	0
18	2023-04-19	15:41:47	15:48:30	15:48:30:586	7	1	Reminder_Objects_CSp	fixation	0	5	500	0	0	1	495	1	+	-15	0	0	0	0	0	0
18	2023-04-19	15:41:47	15:48:35	15:48:35:604	7	2	Reminder_Objects_CSp	Objects_CSp	0	5	0	0	0	0	5000	4	Object5.jpg	-16	0	0	0	0	0	0
18	2023-04-19	15:41:47	15:48:37	15:48:37:605	7	3	Reminder_Objects_CSp	expectancy_object	0	1500	0	0	68	0	1979	1	When you saw the <b>object</b>,   to what <b>degree (0-100%)</b> did you expect the <b>unpleasant sound to occur</b>?	-16	0	0	0	0	0	0
18	2023-04-19	15:41:47	15:48:40	15:48:40:604	8	1	PracticeItems_NoThink	fixation	0	5	1500	0	0	1	1495	1	+	-15	0	0	0	0	0	0
18	2023-04-19	15:41:47	15:48:45	15:48:45:621	8	2	PracticeItems_NoThink	PracticeItems_NoThink	0	5	0	0	0	0	5000	1	+	-14	1	Cue39.jpg	-14	1	Target39.jpg	-14
18	2023-04-19	15:41:47	15:48:51	15:48:51:505	8	3	PracticeItems_NoThink	valence	0	5	0	0	11	0	5866	1	I found these images to be...	-16	0	0	0	0	0	0
18	2023-04-19	15:41:47	15:48:54	15:48:54:672	8	4	PracticeItems_NoThink	expectancy	0	1500	0	0	100	0	3126	1	When you saw the <b>object-scene</b>,   to what <b>degree (0-100%)</b> did you expect the <b>unpleasant sound to occur</b>?	-12	0	0	0	0	0	0
18	2023-04-19	15:41:47	15:48:56	15:48:56:671	9	1	Reminder_NoThink_CSp	fixation	0	5	500	0	0	1	495	1	+	-15	0	0	0	0	0	0
18	2023-04-19	15:41:47	15:49:01	15:49:01:689	9	2	Reminder_NoThink_CSp	NoThink_CSp	0	5	0	0	0	0	5000	1	+	-13	2	Cue33.jpg	-13	2	Target33.jpg	-13
18	2023-04-19	15:41:47	15:49:04	15:49:04:790	9	3	Reminder_NoThink_CSp	valence	0	5	0	0	15	0	2078	1	I found these images to be...	-16	0	0	0	0	0	0
18	2023-04-19	15:41:47	15:49:07	15:49:07:390	9	4	Reminder_NoThink_CSp	expectancy	0	500	0	0	74	0	3561	1	When you saw the <b>object-scene</b>,   to what <b>degree (0-100%)</b> did you expect the <b>unpleasant sound to occur</b>?	-12	0	0	0	0	0	0
18	2023-04-19	15:41:47	15:49:09	15:49:09:888	10	1	Reminder_NoThink_CSp	fixation	0	5	1000	0	0	1	995	1	+	-15	0	0	0	0	0	0
18	2023-04-19	15:41:47	15:49:14	15:49:14:909	10	2	Reminder_NoThink_CSp	NoThink_CSp	0	5	0	0	0	0	5000	1	+	-14	3	Cue2.jpg	-14	3	Target2.jpg	-14
18	2023-04-19	15:41:47	15:49:16	15:49:16:206	10	3	Reminder_NoThink_CSp	valence	0	5	0	0	5	0	2245	1	I found these images to be...	-16	0	0	0	0	0	0
18	2023-04-19	15:41:47	15:49:19	15:49:19:840	10	4	Reminder_NoThink_CSp	expectancy	0	1500	0	0	59	0	2592	1	When you saw the <b>object-scene</b>,   to what <b>degree (0-100%)</b> did you expect the <b>unpleasant sound to occur</b>?	-8	0	0	0	0	0	0
18	2023-04-19	15:41:47	15:49:22	15:49:22:842	11	1	Reminder_Think_CSp	fixation	0	5	1500	0	0	1	1495	1	+	-8	0	0	0	0	0	0
18	2023-04-19	15:41:47	15:49:27	15:49:27:860	11	2	Reminder_Think_CSp	Think_CSp	0	5	0	0	0	0	5000	1	+	-16	3	Cue25.jpg	-16	3	Target25.jpg	-16
18	2023-04-19	15:41:47	15:49:31	15:49:31:07	11	3	Reminder_Think_CSp	valence	0	5	0	0	0	0	4118	1	I found these images to be...	-16	0	0	0	0	0	0
18	2023-04-19	15:41:47	15:49:34	15:49:34:824	11	4	Reminder_Think_CSp	expectancy	0	500	0	0	50	0	2767	1	When you saw the <b>object-scene</b>,   to what <b>degree (0-100%)</b> did you expect the <b>unpleasant sound to occur</b>?	0	0	0	0	0	0	0
18	2023-04-19	15:41:47	15:49:35	15:49:35:823	12	1	Reminder_NoThink_CSm	fixation	0	5	500	0	0	1	495	1	+	-15	0	0	0	0	0	0
18	2023-04-19	15:41:47	15:49:40	15:49:40:841	12	2	Reminder_NoThink_CSm	NoThink_CSm	0	5	0	0	0	0	5000	1	+	-14	3	Cue17.jpg	-14	3	Target17.jpg	-14
18	2023-04-19	15:41:47	15:49:42	15:49:42:174	12	3	Reminder_NoThink_CSm	valence	0	5	0	0	18	0	2302	1	I found these images to be...	-16	0	0	0	0	0	0
18	2023-04-19	15:41:47	15:49:48	15:49:48:726	12	4	Reminder_NoThink_CSm	expectancy	0	1000	0	0	32	0	6504	1	When you saw the <b>object-scene</b>,   to what <b>degree (0-100%)</b> did you expect the <b>unpleasant sound to occur</b>?	-10	0	0	0	0	0	0
18	2023-04-19	15:41:47	15:49:50	15:49:50:724	13	1	Reminder_Think_CSp	fixation	0	5	1000	0	0	1	995	1	+	-15	0	0	0	0	0	0
18	2023-04-19	15:41:47	15:49:55	15:49:55:742	13	2	Reminder_Think_CSp	Think_CSp	0	5	0	0	0	0	5000	1	+	-16	5	Cue4.jpg	-16	5	Target4.jpg	-16
18	2023-04-19	15:41:47	15:49:57	15:49:57:242	13	3	Reminder_Think_CSp	valence	0	5	0	0	27	0	1481	1	I found these images to be...	-16	0	0	0	0	0	0
18	2023-04-19	15:41:47	15:49:59	15:49:59:109	13	4	Reminder_Think_CSp	expectancy	0	500	0	0	83	0	1820	1	When you saw the <b>object-scene</b>,   to what <b>degree (0-100%)</b> did you expect the <b>unpleasant sound to occur</b>?	-10	0	0	0	0	0	0
18	2023-04-19	15:41:47	15:50:00	15:50:00:108	14	1	Reminder_Objects_CSm	fixation	0	5	500	0	0	1	495	1	+	-15	0	0	0	0	0	0
18	2023-04-19	15:41:47	15:50:05	15:50:05:128	14	2	Reminder_Objects_CSm	Objects_CSm	0	5	0	0	0	0	5000	4	Object2.jpg	-14	0	0	0	0	0	0
18	2023-04-19	15:41:47	15:50:10	15:50:10:976	14	3	Reminder_Objects_CSm	expectancy_object	0	1000	0	0	0	0	4792	1	When you saw the <b>object</b>,   to what <b>degree (0-100%)</b> did you expect the <b>unpleasant sound to occur</b>?	-16	0	0	0	0	0	0
18	2023-04-19	15:41:47	15:50:12	15:50:12:463	15	1	Reminder_Baseline_CSm	fixation	0	5	1500	0	0	1	1495	1	+	-9	0	0	0	0	0	0
18	2023-04-19	15:41:47	15:50:17	15:50:17:479	15	2	Reminder_Baseline_CSm	Baseline_CSm	0	5	0	0	0	0	5000	1	+	-16	4	Cue24.jpg	-16	4	Target24.jpg	-16
18	2023-04-19	15:41:47	15:50:19	15:50:19:427	15	3	Reminder_Baseline_CSm	valence	0	5	0	0	17	0	1898	1	I found these images to be...	-16	0	0	0	0	0	0
18	2023-04-19	15:41:47	15:50:22	15:50:22:793	15	4	Reminder_Baseline_CSm	expectancy	0	1500	0	0	0	0	2299	1	When you saw the <b>object-scene</b>,   to what <b>degree (0-100%)</b> did you expect the <b>unpleasant sound to occur</b>?	-7	0	0	0	0	0	0
18	2023-04-19	15:41:47	15:50:24	15:50:24:279	16	1	Reminder_Objects_CSp	fixation	0	5	1000	0	0	1	995	1	+	1	0	0	0	0	0	0
18	2023-04-19	15:41:47	15:50:29	15:50:29:296	16	2	Reminder_Objects_CSp	Objects_CSp	0	5	0	0	0	0	5000	1	Object7.jpg	-16	0	0	0	0	0	0
18	2023-04-19	15:41:47	15:50:30	15:50:30:261	16	3	Reminder_Objects_CSp	expectancy_object	0	1500	0	0	50	0	937	1	When you saw the <b>object</b>,   to what <b>degree (0-100%)</b> did you expect the <b>unpleasant sound to occur</b>?	-16	0	0	0	0	0	0
18	2023-04-19	15:41:47	15:50:32	15:50:32:764	17	1	Reminder_NoThink_CSm	fixation	0	5	1000	0	0	1	995	1	+	-9	0	0	0	0	0	0
18	2023-04-19	15:41:47	15:50:38	15:50:38:781	17	2	Reminder_NoThink_CSm	NoThink_CSm	0	5	0	0	0	0	5000	1	+	-16	6	Cue1.jpg	-16	6	Target1.jpg	-16
18	2023-04-19	15:41:47	15:50:40	15:50:40:428	17	3	Reminder_NoThink_CSm	valence	0	5	0	0	17	0	2620	1	I found these images to be...	-16	0	0	0	0	0	0
18	2023-04-19	15:41:47	15:50:43	15:50:43:295	17	4	Reminder_NoThink_CSm	expectancy	0	1000	0	0	50	0	2818	1	When you saw the <b>object-scene</b>,   to what <b>degree (0-100%)</b> did you expect the <b>unpleasant sound to occur</b>?	0	0	0	0	0	0	0
18	2023-04-19	15:41:47	15:50:46	15:50:46:795	18	1	PracticeItems_Think	fixation	0	5	1500	0	0	1	1495	1	+	-14	0	0	0	0	0	0
18	2023-04-19	15:41:47	15:50:51	15:50:51:812	18	2	PracticeItems_Think	PracticeItems_Think	0	5	0	0	0	0	5000	1	+	-13	1	Cue37.jpg	-13	1	Target37.jpg	-13
18	2023-04-19	15:41:47	15:50:53	15:50:53:612	18	3	PracticeItems_Think	valence	0	5	0	0	17	0	2779	1	I found these images to be...	-16	0	0	0	0	0	0
18	2023-04-19	15:41:47	15:50:57	15:50:57:430	18	4	PracticeItems_Think	expectancy	0	500	0	0	58	0	3770	1	When you saw the <b>object-scene</b>,   to what <b>degree (0-100%)</b> did you expect the <b>unpleasant sound to occur</b>?	-12	0	0	0	0	0	0
18	2023-04-19	15:41:47	15:50:58	15:50:58:432	19	1	Reminder_Objects_CSm	fixation	0	5	500	0	0	1	495	1	+	-8	0	0	0	0	0	0
18	2023-04-19	15:41:47	15:51:03	15:51:03:448	19	2	Reminder_Objects_CSm	Objects_CSm	0	5	0	0	0	0	5000	2	Object6.jpg	-16	0	0	0	0	0	0
18	2023-04-19	15:41:47	15:51:06	15:51:06:296	19	3	Reminder_Objects_CSm	expectancy_object	0	500	0	0	11	0	2792	1	When you saw the <b>object</b>,   to what <b>degree (0-100%)</b> did you expect the <b>unpleasant sound to occur</b>?	-16	0	0	0	0	0	0
18	2023-04-19	15:41:47	15:51:08	15:51:08:282	20	1	Reminder_Baseline_CSm	fixation	0	5	1500	0	0	1	1495	1	+	-8	0	0	0	0	0	0
18	2023-04-19	15:41:47	15:51:13	15:51:13:299	20	2	Reminder_Baseline_CSm	Baseline_CSm	0	5	0	0	0	0	5000	1	+	-16	1	Cue11.jpg	-16	1	Target11.jpg	-16
18	2023-04-19	15:41:47	15:51:15	15:51:15:547	20	3	Reminder_Baseline_CSm	valence	0	5	0	0	33	0	2198	1	I found these images to be...	-16	0	0	0	0	0	0
18	2023-04-19	15:41:47	15:51:17	15:51:17:547	20	4	Reminder_Baseline_CSm	expectancy	0	1500	0	0	11	0	1955	1	When you saw the <b>object-scene</b>,   to what <b>degree (0-100%)</b> did you expect the <b>unpleasant sound to occur</b>?	-6	0	0	0	0	0	0
18	2023-04-19	15:41:47	15:51:19	15:51:19:546	21	1	Reminder_Think_CSp	fixation	0	5	500	0	0	1	495	1	+	-15	0	0	0	0	0	0
18	2023-04-19	15:41:47	15:51:24	15:51:24:564	21	2	Reminder_Think_CSp	Think_CSp	0	5	0	0	0	0	5000	1	+	-14	1	Cue6.jpg	-14	1	Target6.jpg	-14
18	2023-04-19	15:41:47	15:51:28	15:51:28:097	21	3	Reminder_Think_CSp	valence	0	5	0	0	18	0	3482	1	I found these images to be...	-16	0	0	0	0	0	0
18	2023-04-19	15:41:47	15:51:32	15:51:32:298	21	4	Reminder_Think_CSp	expectancy	0	1000	0	0	35	0	4132	1	When you saw the <b>object-scene</b>,   to what <b>degree (0-100%)</b> did you expect the <b>unpleasant sound to occur</b>?	-11	0	0	0	0	0	0
18	2023-04-19	15:41:47	15:51:34	15:51:34:280	22	1	Reminder_Baseline_CSm	fixation	0	5	1000	0	0	1	995	1	+	-15	0	0	0	0	0	0
18	2023-04-19	15:41:47	15:51:39	15:51:39:298	22	2	Reminder_Baseline_CSm	Baseline_CSm	0	5	0	0	0	0	5000	1	+	-13	3	Cue30.jpg	-13	3	Target30.jpg	-13
18	2023-04-19	15:41:47	15:51:42	15:51:42:999	22	3	Reminder_Baseline_CSm	valence	0	5	0	0	18	0	2677	1	I found these images to be...	-16	0	0	0	0	0	0
18	2023-04-19	15:41:47	15:51:45	15:51:45:265	22	4	Reminder_Baseline_CSm	expectancy	0	500	0	0	0	0	3231	1	When you saw the <b>object-scene</b>,   to what <b>degree (0-100%)</b> did you expect the <b>unpleasant sound to occur</b>?	-10	0	0	0	0	0	0
18	2023-04-19	15:41:47	15:51:46	15:51:46:764	23	1	Reminder_Think_CSm	fixation	0	5	1000	0	0	1	995	1	+	-15	0	0	0	0	0	0
18	2023-04-19	15:41:47	15:51:52	15:51:52:785	23	2	Reminder_Think_CSm	Think_CSm	0	5	0	0	0	0	5000	1	+	-14	3	Cue21.jpg	-14	3	Target21.jpg	-14
18	2023-04-19	15:41:47	15:51:54	15:51:54:382	23	3	Reminder_Think_CSm	valence	0	5	0	0	18	0	2568	1	I found these images to be...	-16	0	0	0	0	0	0
18	2023-04-19	15:41:47	15:51:56	15:51:56:516	23	4	Reminder_Think_CSm	expectancy	0	1000	0	0	0	0	2063	1	When you saw the <b>object-scene</b>,   to what <b>degree (0-100%)</b> did you expect the <b>unpleasant sound to occur</b>?	0	0	0	0	0	0	0
18	2023-04-19	15:41:47	15:51:59	15:51:59:02	24	1	Reminder_Baseline_CSm	fixation	0	5	1500	0	0	1	1495	1	+	-8	0	0	0	0	0	0
18	2023-04-19	15:41:47	15:52:04	15:52:04:019	24	2	Reminder_Baseline_CSm	Baseline_CSm	0	5	0	0	0	0	5000	1	+	-16	5	Cue23.jpg	-16	5	Target23.jpg	-16
18	2023-04-19	15:41:47	15:52:09	15:52:09:216	24	3	Reminder_Baseline_CSm	valence	0	5	0	0	30	0	5150	1	I found these images to be...	-16	0	0	0	0	0	0
18	2023-04-19	15:41:47	15:52:12	15:52:12:317	24	4	Reminder_Baseline_CSm	expectancy	0	1500	0	0	24	0	3036	1	When you saw the <b>object-scene</b>,   to what <b>degree (0-100%)</b> did you expect the <b>unpleasant sound to occur</b>?	-7	0	0	0	0	0	0
18	2023-04-19	15:41:47	15:52:14	15:52:14:316	25	1	Reminder_Baseline_CSp	fixation	0	5	500	0	0	1	495	1	+	-15	0	0	0	0	0	0
18	2023-04-19	15:41:47	15:52:19	15:52:19:334	25	2	Reminder_Baseline_CSp	Baseline_CSp	0	5	0	0	0	0	5000	1	+	-12	4	Cue15.jpg	-12	4	Target15.jpg	-12
18	2023-04-19	15:41:47	15:52:23	15:52:23:152	25	3	Reminder_Baseline_CSp	valence	0	5	0	0	18	0	3792	1	I found these images to be...	-16	0	0	0	0	0	0
18	2023-04-19	15:41:47	15:52:26	15:52:26:084	25	4	Reminder_Baseline_CSp	expectancy	0	500	0	0	61	0	2886	1	When you saw the <b>object-scene</b>,   to what <b>degree (0-100%)</b> did you expect the <b>unpleasant sound to occur</b>?	-12	0	0	0	0	0	0
18	2023-04-19	15:41:47	15:52:28	15:52:28:083	26	1	Reminder_Objects_CSp	fixation	0	5	1500	0	0	1	1495	1	+	-15	0	0	0	0	0	0
18	2023-04-19	15:41:47	15:52:33	15:52:33:101	26	2	Reminder_Objects_CSp	Objects_CSp	0	5	0	0	0	0	5000	3	Object3.jpg	-14	0	0	0	0	0	0
18	2023-04-19	15:41:47	15:52:36	15:52:36:485	26	3	Reminder_Objects_CSp	expectancy_object	0	1000	0	0	83	0	3353	1	When you saw the <b>object</b>,   to what <b>degree (0-100%)</b> did you expect the <b>unpleasant sound to occur</b>?	-16	0	0	0	0	0	0
18	2023-04-19	15:41:47	15:52:38	15:52:38:985	27	1	Reminder_Baseline_CSp	fixation	0	5	500	0	0	1	495	1	+	-15	0	0	0	0	0	0
18	2023-04-19	15:41:47	15:52:43	15:52:43:04	27	2	Reminder_Baseline_CSp	Baseline_CSp	0	5	0	0	0	0	5000	1	+	-16	6	Cue8.jpg	-16	6	Target8.jpg	-16
18	2023-04-19	15:41:47	15:52:45	15:52:45:135	27	3	Reminder_Baseline_CSp	valence	0	5	0	0	15	0	2076	1	I found these images to be...	-16	0	0	0	0	0	0
18	2023-04-19	15:41:47	15:52:47	15:52:47:185	27	4	Reminder_Baseline_CSp	expectancy	0	1500	0	0	93	0	1982	1	When you saw the <b>object-scene</b>,   to what <b>degree (0-100%)</b> did you expect the <b>unpleasant sound to occur</b>?	-8	0	0	0	0	0	0
18	2023-04-19	15:41:47	15:52:49	15:52:49:672	28	1	Reminder_NoThink_CSp	fixation	0	5	1000	0	0	1	995	1	+	-8	0	0	0	0	0	0
18	2023-04-19	15:41:47	15:52:54	15:52:54:689	28	2	Reminder_NoThink_CSp	NoThink_CSp	0	5	0	0	0	0	5000	1	+	-16	6	Cue31.jpg	-16	6	Target31.jpg	-16
18	2023-04-19	15:41:47	15:52:57	15:52:57:619	28	3	Reminder_NoThink_CSp	valence	0	5	0	0	0	0	2880	1	I found these images to be...	-16	0	0	0	0	0	0
18	2023-04-19	15:41:47	15:53:00	15:53:00:170	28	4	Reminder_NoThink_CSp	expectancy	0	1000	0	0	100	0	2482	1	When you saw the <b>object-scene</b>,   to what <b>degree (0-100%)</b> did you expect the <b>unpleasant sound to occur</b>?	-8	0	0	0	0	0	0
18	2023-04-19	15:41:47	15:53:01	15:53:01:652	29	1	Reminder_Baseline_CSp	fixation	0	5	500	0	0	1	495	1	+	-15	0	0	0	0	0	0
18	2023-04-19	15:41:47	15:53:06	15:53:06:670	29	2	Reminder_Baseline_CSp	Baseline_CSp	0	5	0	0	0	0	5000	1	+	-13	3	Cue9.jpg	-13	3	Target9.jpg	-13
18	2023-04-19	15:41:47	15:53:09	15:53:09:770	29	3	Reminder_Baseline_CSp	valence	0	5	0	0	29	0	2072	1	I found these images to be...	-16	0	0	0	0	0	0
18	2023-04-19	15:41:47	15:53:10	15:53:10:654	29	4	Reminder_Baseline_CSp	expectancy	0	500	0	0	27	0	1835	1	When you saw the <b>object-scene</b>,   to what <b>degree (0-100%)</b> did you expect the <b>unpleasant sound to occur</b>?	-10	0	0	0	0	0	0
18	2023-04-19	15:41:47	15:53:12	15:53:12:653	30	1	Reminder_Think_CSm	fixation	0	5	1500	0	0	1	1495	1	+	-15	0	0	0	0	0	0
18	2023-04-19	15:41:47	15:53:17	15:53:17:671	30	2	Reminder_Think_CSm	Think_CSm	0	5	0	0	0	0	5000	1	+	-13	1	Cue16.jpg	-13	1	Target16.jpg	-13
18	2023-04-19	15:41:47	15:53:20	15:53:20:05	30	3	Reminder_Think_CSm	valence	0	5	0	0	37	0	2311	1	I found these images to be...	-16	0	0	0	0	0	0
18	2023-04-19	15:41:47	15:53:22	15:53:22:671	30	4	Reminder_Think_CSm	expectancy	0	1000	0	0	17	0	2625	1	When you saw the <b>object-scene</b>,   to what <b>degree (0-100%)</b> did you expect the <b>unpleasant sound to occur</b>?	-12	0	0	0	0	0	0
18	2023-04-19	15:41:47	15:53:24	15:53:24:670	31	1	Reminder_Baseline_CSp	fixation	0	5	1000	0	0	1	995	1	+	-15	0	0	0	0	0	0
18	2023-04-19	15:41:47	15:53:29	15:53:29:688	31	2	Reminder_Baseline_CSp	Baseline_CSp	0	5	0	0	0	0	5000	1	+	-13	1	Cue26.jpg	-13	1	Target26.jpg	-13
18	2023-04-19	15:41:47	15:53:34	15:53:34:855	31	3	Reminder_Baseline_CSp	valence	0	5	0	0	27	0	4110	1	I found these images to be...	-16	0	0	0	0	0	0
18	2023-04-19	15:41:47	15:53:36	15:53:36:072	31	4	Reminder_Baseline_CSp	expectancy	0	1500	0	0	100	0	2157	1	When you saw the <b>object-scene</b>,   to what <b>degree (0-100%)</b> did you expect the <b>unpleasant sound to occur</b>?	-6	0	0	0	0	0	0
18	2023-04-19	15:41:47	15:53:38	15:53:38:571	32	1	Reminder_Baseline_CSp	fixation	0	5	1000	0	0	1	995	1	+	-15	0	0	0	0	0	0
18	2023-04-19	15:41:47	15:53:43	15:53:43:589	32	2	Reminder_Baseline_CSp	Baseline_CSp	0	5	0	0	0	0	5000	1	+	-16	5	Cue28.jpg	-16	5	Target28.jpg	-16
18	2023-04-19	15:41:47	15:53:45	15:53:45:689	32	3	Reminder_Baseline_CSp	valence	0	5	0	0	35	0	2081	1	I found these images to be...	-16	0	0	0	0	0	0
18	2023-04-19	15:41:47	15:53:49	15:53:49:023	32	4	Reminder_Baseline_CSp	expectancy	0	1500	0	0	63	0	3284	1	When you saw the <b>object-scene</b>,   to what <b>degree (0-100%)</b> did you expect the <b>unpleasant sound to occur</b>?	-12	0	0	0	0	0	0
18	2023-04-19	15:41:47	15:53:52	15:53:52:022	33	1	PracticeItems_NoThink	fixation	0	5	1500	0	0	1	1495	1	+	-15	0	0	0	0	0	0
18	2023-04-19	15:41:47	15:53:57	15:53:57:040	33	2	PracticeItems_NoThink	PracticeItems_NoThink	0	5	0	0	0	0	5000	1	+	-14	2	Cue40.jpg	-14	2	Target40.jpg	-14
18	2023-04-19	15:41:47	15:54:01	15:54:01:257	33	3	PracticeItems_NoThink	valence	0	5	0	0	10	0	4166	1	I found these images to be...	-16	0	0	0	0	0	0
18	2023-04-19	15:41:47	15:54:12	15:54:12:391	33	4	PracticeItems_NoThink	expectancy	0	1000	0	0	73	0	11093	1	When you saw the <b>object-scene</b>,   to what <b>degree (0-100%)</b> did you expect the <b>unpleasant sound to occur</b>?	-12	0	0	0	0	0	0
18	2023-04-19	15:41:47	15:54:14	15:54:14:890	34	1	Reminder_NoThink_CSm	fixation	0	5	500	0	0	1	495	1	+	-15	0	0	0	0	0	0
18	2023-04-19	15:41:47	15:54:19	15:54:19:908	34	2	Reminder_NoThink_CSm	NoThink_CSm	0	5	0	0	0	0	5000	1	+	-13	5	Cue36.jpg	-13	5	Target36.jpg	-13
18	2023-04-19	15:41:47	15:54:21	15:54:21:408	34	3	Reminder_NoThink_CSm	valence	0	5	0	0	29	0	2466	1	I found these images to be...	-16	0	0	0	0	0	0
18	2023-04-19	15:41:47	15:54:24	15:54:24:325	34	4	Reminder_NoThink_CSm	expectancy	0	500	0	0	34	0	2870	1	When you saw the <b>object-scene</b>,   to what <b>degree (0-100%)</b> did you expect the <b>unpleasant sound to occur</b>?	-10	0	0	0	0	0	0
18	2023-04-19	15:41:47	15:54:25	15:54:25:326	35	1	Reminder_Think_CSm	fixation	0	5	500	0	0	1	495	1	+	-10	0	0	0	0	0	0
18	2023-04-19	15:41:47	15:54:30	15:54:30:344	35	2	Reminder_Think_CSm	Think_CSm	0	5	0	0	0	0	5000	1	+	-16	5	Cue27.jpg	-16	5	Target27.jpg	-16
18	2023-04-19	15:41:47	15:54:34	15:54:34:592	35	3	Reminder_Think_CSm	valence	0	5	0	0	16	0	4224	1	I found these images to be...	-16	0	0	0	0	0	0
18	2023-04-19	15:41:47	15:54:37	15:54:37:992	35	4	Reminder_Think_CSm	expectancy	0	1500	0	0	50	0	2325	1	When you saw the <b>object-scene</b>,   to what <b>degree (0-100%)</b> did you expect the <b>unpleasant sound to occur</b>?	0	0	0	0	0	0	0
18	2023-04-19	15:41:47	15:54:39	15:54:39:479	36	1	Reminder_Think_CSm	fixation	0	5	1000	0	0	1	995	1	+	-9	0	0	0	0	0	0
18	2023-04-19	15:41:47	15:54:44	15:54:44:495	36	2	Reminder_Think_CSm	Think_CSm	0	5	0	0	0	0	5000	1	+	-16	6	Cue22.jpg	-16	6	Target22.jpg	-16
18	2023-04-19	15:41:47	15:54:48	15:54:48:226	36	3	Reminder_Think_CSm	valence	0	5	0	0	11	0	3705	1	I found these images to be...	-16	0	0	0	0	0	0
18	2023-04-19	15:41:47	15:54:50	15:54:50:226	36	4	Reminder_Think_CSm	expectancy	0	500	0	0	72	0	1931	1	When you saw the <b>object-scene</b>,   to what <b>degree (0-100%)</b> did you expect the <b>unpleasant sound to occur</b>?	0	0	0	0	0	0	0
18	2023-04-19	15:41:47	15:54:52	15:54:52:213	37	1	Reminder_Baseline_CSm	fixation	0	5	1500	0	0	1	1495	1	+	-5	0	0	0	0	0	0
18	2023-04-19	15:41:47	15:54:57	15:54:57:229	37	2	Reminder_Baseline_CSm	Baseline_CSm	0	5	0	0	0	0	5000	1	+	-16	2	Cue34.jpg	-16	2	Target34.jpg	-16
18	2023-04-19	15:41:47	15:55:00	15:55:00:844	37	3	Reminder_Baseline_CSm	valence	0	5	0	0	7	0	2587	1	I found these images to be...	-16	0	0	0	0	0	0
18	2023-04-19	15:41:47	15:55:02	15:55:02:094	37	4	Reminder_Baseline_CSm	expectancy	0	1000	0	0	38	0	2202	1	When you saw the <b>object-scene</b>,   to what <b>degree (0-100%)</b> did you expect the <b>unpleasant sound to occur</b>?	0	0	0	0	0	0	0
18	2023-04-19	15:41:47	15:55:04	15:55:04:593	38	1	Reminder_Baseline_CSp	fixation	0	5	1500	0	0	1	1495	1	+	-14	0	0	0	0	0	0
18	2023-04-19	15:41:47	15:55:09	15:55:09:611	38	2	Reminder_Baseline_CSp	Baseline_CSp	0	5	0	0	0	0	5000	1	+	-16	2	Cue19.jpg	-16	2	Target19.jpg	-16
18	2023-04-19	15:41:47	15:55:12	15:55:12:828	38	3	Reminder_Baseline_CSp	valence	0	5	0	0	1	0	2187	1	I found these images to be...	-16	0	0	0	0	0	0
18	2023-04-19	15:41:47	15:55:13	15:55:13:445	38	4	Reminder_Baseline_CSp	expectancy	0	1000	0	0	96	0	1578	1	When you saw the <b>object-scene</b>,   to what <b>degree (0-100%)</b> did you expect the <b>unpleasant sound to occur</b>?	-12	0	0	0	0	0	0
18	2023-04-19	15:41:47	15:55:15	15:55:15:443	39	1	Reminder_NoThink_CSp	fixation	0	5	1000	0	0	1	995	1	+	-15	0	0	0	0	0	0
18	2023-04-19	15:41:47	15:55:20	15:55:20:464	39	2	Reminder_NoThink_CSp	NoThink_CSp	0	5	0	0	0	0	5000	1	+	-14	4	Cue3.jpg	-14	4	Target3.jpg	-14
18	2023-04-19	15:41:47	15:55:23	15:55:23:962	39	3	Reminder_NoThink_CSp	valence	0	5	0	0	19	0	2472	1	I found these images to be...	-16	0	0	0	0	0	0
18	2023-04-19	15:41:47	15:55:24	15:55:24:728	39	4	Reminder_NoThink_CSp	expectancy	0	1500	0	0	91	0	1700	1	When you saw the <b>object-scene</b>,   to what <b>degree (0-100%)</b> did you expect the <b>unpleasant sound to occur</b>?	0	0	0	0	0	0	0
18	2023-04-19	15:41:47	15:55:26	15:55:26:711	40	1	Reminder_Think_CSm	fixation	0	5	500	0	0	1	495	1	+	-15	0	0	0	0	0	0
18	2023-04-19	15:41:47	15:55:31	15:55:31:728	40	2	Reminder_Think_CSm	Think_CSm	0	5	0	0	0	0	5000	1	+	-16	4	Cue18.jpg	-16	4	Target18.jpg	-16
18	2023-04-19	15:41:47	15:55:33	15:55:33:746	40	3	Reminder_Think_CSm	valence	0	5	0	0	0	0	1997	1	I found these images to be...	-16	0	0	0	0	0	0
18	2023-04-19	15:41:47	15:55:34	15:55:34:312	40	4	Reminder_Think_CSm	expectancy	0	500	0	0	50	0	500	1	When you saw the <b>object-scene</b>,   to what <b>degree (0-100%)</b> did you expect the <b>unpleasant sound to occur</b>?	-12	0	0	0	0	0	0
18	2023-04-19	15:41:47	15:55:35	15:55:35:295	41	1	Reminder_Objects_CSp	fixation	0	5	500	0	0	1	495	1	+	-14	0	0	0	0	0	0
18	2023-04-19	15:41:47	15:55:40	15:55:40:312	41	2	Reminder_Objects_CSp	Objects_CSp	0	5	0	0	0	0	5000	2	Object8.jpg	-16	0	0	0	0	0	0
18	2023-04-19	15:41:47	15:55:43	15:55:43:963	41	3	Reminder_Objects_CSp	expectancy_object	0	500	0	0	99	0	2621	1	When you saw the <b>object</b>,   to what <b>degree (0-100%)</b> did you expect the <b>unpleasant sound to occur</b>?	-16	0	0	0	0	0	0
18	2023-04-19	15:41:47	15:55:44	15:55:44:462	42	1	Reminder_NoThink_CSm	fixation	0	5	1000	0	0	1	995	1	+	-15	0	0	0	0	0	0
18	2023-04-19	15:41:47	15:55:49	15:55:49:480	42	2	Reminder_NoThink_CSm	NoThink_CSm	0	5	0	0	0	0	5000	1	+	-14	2	Cue5.jpg	-14	2	Target5.jpg	-14
18	2023-04-19	15:41:47	15:55:52	15:55:52:313	42	3	Reminder_NoThink_CSm	valence	0	5	0	0	20	0	2782	1	I found these images to be...	-16	0	0	0	0	0	0
18	2023-04-19	15:41:47	15:55:54	15:55:54:797	42	4	Reminder_NoThink_CSm	expectancy	0	500	0	0	34	0	1444	1	When you saw the <b>object-scene</b>,   to what <b>degree (0-100%)</b> did you expect the <b>unpleasant sound to occur</b>?	-12	0	0	0	0	0	0
18	2023-04-19	15:41:47	15:55:56	15:55:56:796	43	1	Reminder_Think_CSm	fixation	0	5	1500	0	0	1	1495	1	+	-15	0	0	0	0	0	0
18	2023-04-19	15:41:47	15:56:01	15:56:01:814	43	2	Reminder_Think_CSm	Think_CSm	0	5	0	0	0	0	5000	1	+	-14	2	Cue12.jpg	-14	2	Target12.jpg	-14
18	2023-04-19	15:41:47	15:56:04	15:56:04:231	43	3	Reminder_Think_CSm	valence	0	5	0	0	25	0	3384	1	I found these images to be...	-16	0	0	0	0	0	0
18	2023-04-19	15:41:47	15:56:07	15:56:07:815	43	4	Reminder_Think_CSm	expectancy	0	1000	0	0	50	0	2535	1	When you saw the <b>object-scene</b>,   to what <b>degree (0-100%)</b> did you expect the <b>unpleasant sound to occur</b>?	-12	0	0	0	0	0	0
18	2023-04-19	15:41:47	15:56:09	15:56:09:313	44	1	Reminder_NoThink_CSm	fixation	0	5	1500	0	0	1	1495	1	+	-15	0	0	0	0	0	0
18	2023-04-19	15:41:47	15:56:14	15:56:14:334	44	2	Reminder_NoThink_CSm	NoThink_CSm	0	5	0	0	0	0	5000	1	+	-11	1	Cue20.jpg	-11	1	Target20.jpg	-11
18	2023-04-19	15:41:47	15:56:17	15:56:17:581	44	3	Reminder_NoThink_CSm	valence	0	5	0	0	27	0	3195	1	I found these images to be...	-16	0	0	0	0	0	0
18	2023-04-19	15:41:47	15:56:19	15:56:19:682	44	4	Reminder_NoThink_CSm	expectancy	0	1500	0	0	0	0	2056	1	When you saw the <b>object-scene</b>,   to what <b>degree (0-100%)</b> did you expect the <b>unpleasant sound to occur</b>?	-7	0	0	0	0	0	0
18	2023-04-19	15:41:47	15:56:22	15:56:22:185	45	1	Reminder_Objects_CSm	fixation	0	5	1000	0	0	1	995	1	+	-8	0	0	0	0	0	0
18	2023-04-19	15:41:47	15:56:27	15:56:27:200	45	2	Reminder_Objects_CSm	Objects_CSm	0	5	0	0	0	0	5000	1	Object1.jpg	-16	0	0	0	0	0	0
18	2023-04-19	15:41:47	15:56:30	15:56:30:499	45	3	Reminder_Objects_CSm	expectancy_object	0	1000	0	0	1	0	3248	1	When you saw the <b>object</b>,   to what <b>degree (0-100%)</b> did you expect the <b>unpleasant sound to occur</b>?	-16	0	0	0	0	0	0
18	2023-04-19	15:41:47	15:56:32	15:56:32:985	46	1	Reminder_Think_CSp	fixation	0	5	500	0	0	1	495	1	+	-9	0	0	0	0	0	0
18	2023-04-19	15:41:47	15:56:37	15:56:37:02	46	2	Reminder_Think_CSp	Think_CSp	0	5	0	0	0	0	5000	1	+	-16	2	Cue13.jpg	-16	2	Target13.jpg	-16
18	2023-04-19	15:41:47	15:56:39	15:56:39:566	46	3	Reminder_Think_CSp	valence	0	5	0	0	17	0	2511	1	I found these images to be...	-16	0	0	0	0	0	0
18	2023-04-19	15:41:47	15:56:41	15:56:41:016	46	4	Reminder_Think_CSp	expectancy	0	1500	0	0	70	0	1383	1	When you saw the <b>object-scene</b>,   to what <b>degree (0-100%)</b> did you expect the <b>unpleasant sound to occur</b>?	-8	0	0	0	0	0	0
18	2023-04-19	15:41:47	15:56:43	15:56:43:999	47	1	Reminder_Think_CSp	fixation	0	5	500	0	0	1	495	1	+	-15	0	0	0	0	0	0
18	2023-04-19	15:41:47	15:56:48	15:56:48:016	47	2	Reminder_Think_CSp	Think_CSp	0	5	0	0	0	0	5000	1	+	-16	4	Cue7.jpg	-16	4	Target7.jpg	-16
18	2023-04-19	15:41:47	15:56:51	15:56:51:033	47	3	Reminder_Think_CSp	valence	0	5	0	0	1	0	2965	1	I found these images to be...	-16	0	0	0	0	0	0
18	2023-04-19	15:41:47	15:56:53	15:56:53:767	47	4	Reminder_Think_CSp	expectancy	0	500	0	0	100	0	1692	1	When you saw the <b>object-scene</b>,   to what <b>degree (0-100%)</b> did you expect the <b>unpleasant sound to occur</b>?	-11	0	0	0	0	0	0
18	2023-04-19	15:41:47	15:56:55	15:56:55:766	48	1	Reminder_NoThink_CSm	fixation	0	5	1500	0	0	1	1495	1	+	-15	0	0	0	0	0	0
18	2023-04-19	15:41:47	15:57:00	15:57:00:784	48	2	Reminder_NoThink_CSm	NoThink_CSm	0	5	0	0	0	0	5000	1	+	-13	4	Cue14.jpg	-13	4	Target14.jpg	-13
18	2023-04-19	15:41:47	15:57:02	15:57:02:801	48	3	Reminder_NoThink_CSm	valence	0	5	0	0	23	0	1990	1	I found these images to be...	-16	0	0	0	0	0	0
18	2023-04-19	15:41:47	15:57:05	15:57:05:868	48	4	Reminder_NoThink_CSm	expectancy	0	1000	0	0	0	0	3021	1	When you saw the <b>object-scene</b>,   to what <b>degree (0-100%)</b> did you expect the <b>unpleasant sound to occur</b>?	0	0	0	0	0	0	0
18	2023-04-19	15:41:47	15:57:07	15:57:07:867	49	1	Reminder_Baseline_CSm	fixation	0	5	1000	0	0	1	995	1	+	-15	0	0	0	0	0	0
18	2023-04-19	15:41:47	15:57:12	15:57:12:885	49	2	Reminder_Baseline_CSm	Baseline_CSm	0	5	0	0	0	0	5000	1	+	-16	6	Cue35.jpg	-16	6	Target35.jpg	-16
18	2023-04-19	15:41:47	15:57:15	15:57:15:385	49	3	Reminder_Baseline_CSm	valence	0	5	0	0	23	0	3481	1	I found these images to be...	-16	0	0	0	0	0	0
18	2023-04-19	15:41:47	15:57:18	15:57:18:802	49	4	Reminder_Baseline_CSm	expectancy	0	500	0	0	31	0	2381	1	When you saw the <b>object-scene</b>,   to what <b>degree (0-100%)</b> did you expect the <b>unpleasant sound to occur</b>?	-10	0	0	0	0	0	0
18	2023-04-19	15:41:47	16:01:05	16:01:05:02	2	1	Practice_Think	fixation	0	5	1000	0	0	1	995	1	+	-16	0	0	0	0	0	0
18	2023-04-19	15:41:47	16:01:06	16:01:06:019	2	2	Practice_Think	Think	0	5	0	0	0	0	1000	1	THINK	-16	0	0	0	0	0	0
18	2023-04-19	15:41:47	16:01:11	16:01:11:035	2	3	Practice_Think	ThinkCue	0	5	0	0	0	1	5000	2	Cue38.jpg	-16	0	0	0	0	0	0
18	2023-04-19	15:41:47	16:01:13	16:01:13:558	2	4	Practice_Think	Intrusion	0	500	3000	0	0	0	2500	1	How <b>often</b> did you <b>think</b> about the <b>scene</b>?   <center><br><b>NEVER (1)    BRIEFLY (2)   OFTEN (3) </b>	-14	0	0	0	0	0	0
18	2023-04-19	15:41:47	16:01:15	16:01:15:539	3	1	Practice_Think	fixation	0	5	1500	0	0	1	1495	1	+	-9	0	0	0	0	0	0
18	2023-04-19	15:41:47	16:01:16	16:01:16:552	3	2	Practice_Think	Think	0	5	0	0	0	0	1000	1	THINK	-16	0	0	0	0	0	0
18	2023-04-19	15:41:47	16:01:21	16:01:21:570	3	3	Practice_Think	ThinkCue	0	5	0	0	0	1	5000	1	Cue37.jpg	-16	0	0	0	0	0	0
18	2023-04-19	15:41:47	16:01:23	16:01:23:577	3	4	Practice_Think	Intrusion	0	1000	3000	0	0	0	2000	1	How <b>often</b> did you <b>think</b> about the <b>scene</b>?   <center><br><b>NEVER (1)    BRIEFLY (2)   OFTEN (3) </b>	-16	0	0	0	0	0	0
18	2023-04-19	15:41:47	16:01:25	16:01:25:073	4	1	Practice_NoThink	fixation	0	5	500	0	0	1	495	1	+	-9	0	0	0	0	0	0
18	2023-04-19	15:41:47	16:01:26	16:01:26:087	4	2	Practice_NoThink	NoThink	0	5	0	0	0	0	1000	1	DON'T THINK	-16	0	0	0	0	0	0
18	2023-04-19	15:41:47	16:01:31	16:01:31:103	4	3	Practice_NoThink	NoThinkCue	0	5	0	0	0	1	5000	2	Cue40.jpg	-16	0	0	0	0	0	0
18	2023-04-19	15:41:47	16:01:32	16:01:32:611	4	4	Practice_NoThink	Intrusion	0	1500	3000	0	0	0	1500	1	How <b>often</b> did you <b>think</b> about the <b>scene</b>?   <center><br><b>NEVER (1)    BRIEFLY (2)   OFTEN (3) </b>	-16	0	0	0	0	0	0
18	2023-04-19	15:41:47	16:01:34	16:01:34:607	5	1	Practice_NoThink	fixation	0	5	500	0	0	1	495	1	+	-9	0	0	0	0	0	0
18	2023-04-19	15:41:47	16:01:35	16:01:35:620	5	2	Practice_NoThink	NoThink	0	5	0	0	0	0	1000	1	DON'T THINK	-16	0	0	0	0	0	0
18	2023-04-19	15:41:47	16:01:40	16:01:40:637	5	3	Practice_NoThink	NoThinkCue	0	5	0	0	0	1	5000	1	Cue39.jpg	-16	0	0	0	0	0	0
18	2023-04-19	15:41:47	16:01:42	16:01:42:144	5	4	Practice_NoThink	Intrusion	0	1500	3000	0	0	0	1500	1	How <b>often</b> did you <b>think</b> about the <b>scene</b>?   <center><br><b>NEVER (1)    BRIEFLY (2)   OFTEN (3) </b>	-16	0	0	0	0	0	0
18	2023-04-19	15:41:47	16:04:38	16:04:38:967	6	1	Practice_Betweenblocks1	Practice_Betweenblocks1	0	5	0	0	57	1	174279	1	<center><br><br><br><br>This is the end of the first practice round. <br><br>There will be 2 more practice rounds.  <br><br> Please await further instruction from the experimenter.	-8	0	0	0	0	0	0
18	2023-04-19	15:41:47	16:04:39	16:04:39:469	7	1	Practice_NoThink	fixation	0	5	1500	0	0	1	1495	1	+	-9	0	0	0	0	0	0
18	2023-04-19	15:41:47	16:04:40	16:04:40:481	7	2	Practice_NoThink	NoThink	0	5	0	0	0	0	1000	1	DON'T THINK	-16	0	0	0	0	0	0
18	2023-04-19	15:41:47	16:04:45	16:04:45:498	7	3	Practice_NoThink	NoThinkCue	0	5	0	0	0	1	5000	2	Cue40.jpg	-16	0	0	0	0	0	0
18	2023-04-19	15:41:47	16:04:48	16:04:48:05	7	4	Practice_NoThink	Intrusion	0	500	3000	0	0	0	2500	1	How <b>often</b> did you <b>think</b> about the <b>scene</b>?   <center><br><b>NEVER (1)    BRIEFLY (2)   OFTEN (3) </b>	-16	0	0	0	0	0	0
18	2023-04-19	15:41:47	16:04:49	16:04:49:502	8	1	Practice_Think	fixation	0	5	1000	0	0	1	995	1	+	-8	0	0	0	0	0	0
18	2023-04-19	15:41:47	16:04:50	16:04:50:515	8	2	Practice_Think	Think	0	5	0	0	0	0	1000	1	THINK	-16	0	0	0	0	0	0
18	2023-04-19	15:41:47	16:04:55	16:04:55:532	8	3	Practice_Think	ThinkCue	0	5	0	0	0	1	5000	2	Cue38.jpg	-16	0	0	0	0	0	0
18	2023-04-19	15:41:47	16:04:57	16:04:57:539	8	4	Practice_Think	Intrusion	0	1000	3000	0	0	0	2000	1	How <b>often</b> did you <b>think</b> about the <b>scene</b>?   <center><br><b>NEVER (1)    BRIEFLY (2)   OFTEN (3) </b>	-16	0	0	0	0	0	0
18	2023-04-19	15:41:47	16:05:00	16:05:00:035	9	1	Practice_NoThink	fixation	0	5	1500	0	0	1	1495	1	+	-8	0	0	0	0	0	0
18	2023-04-19	15:41:47	16:05:01	16:05:01:049	9	2	Practice_NoThink	NoThink	0	5	0	0	0	0	1000	1	DON'T THINK	-16	0	0	0	0	0	0
18	2023-04-19	15:41:47	16:05:06	16:05:06:066	9	3	Practice_NoThink	NoThinkCue	0	5	0	0	0	1	5000	1	Cue39.jpg	-16	0	0	0	0	0	0
18	2023-04-19	15:41:47	16:05:08	16:05:08:073	9	4	Practice_NoThink	Intrusion	0	1000	3000	0	0	0	2000	1	How <b>often</b> did you <b>think</b> about the <b>scene</b>?   <center><br><b>NEVER (1)    BRIEFLY (2)   OFTEN (3) </b>	-16	0	0	0	0	0	0
18	2023-04-19	15:41:47	16:05:10	16:05:10:069	10	1	Practice_Think	fixation	0	5	1000	0	0	1	995	1	+	-9	0	0	0	0	0	0
18	2023-04-19	15:41:47	16:05:11	16:05:11:083	10	2	Practice_Think	Think	0	5	0	0	0	0	1000	1	THINK	-16	0	0	0	0	0	0
18	2023-04-19	15:41:47	16:05:16	16:05:16:100	10	3	Practice_Think	ThinkCue	0	5	0	0	0	1	5000	1	Cue37.jpg	-16	0	0	0	0	0	0
18	2023-04-19	15:41:47	16:05:18	16:05:18:606	10	4	Practice_Think	Intrusion	0	500	3000	0	0	0	2500	1	How <b>often</b> did you <b>think</b> about the <b>scene</b>?   <center><br><b>NEVER (1)    BRIEFLY (2)   OFTEN (3) </b>	-16	0	0	0	0	0	0
18	2023-04-19	15:41:47	16:06:31	16:06:31:070	11	1	Practice_Betweenblocks2	Practice_Betweenblocks2	0	5	0	0	57	1	71920	1	<center><br><br><br><br>This is the end of the second practice round. <br><br>There will be 1 more practice round.  <br><br> Please await further instruction from the experimenter.	-8	0	0	0	0	0	0
18	2023-04-19	15:41:47	16:06:31	16:06:31:572	12	1	Practice_Think	fixation	0	5	500	0	0	1	495	1	+	-8	0	0	0	0	0	0
18	2023-04-19	15:41:47	16:06:32	16:06:32:588	12	2	Practice_Think	Think	0	5	0	0	0	0	1000	1	THINK	-16	0	0	0	0	0	0
18	2023-04-19	15:41:47	16:06:37	16:06:37:605	12	3	Practice_Think	ThinkCue	0	5	0	0	0	1	5000	2	Cue38.jpg	-16	0	0	0	0	0	0
18	2023-04-19	15:41:47	16:06:39	16:06:39:113	12	4	Practice_Think	Intrusion	0	1500	3000	0	0	0	1500	1	How <b>often</b> did you <b>think</b> about the <b>scene</b>?   <center><br><b>NEVER (1)    BRIEFLY (2)   OFTEN (3) </b>	-16	0	0	0	0	0	0
18	2023-04-19	15:41:47	16:06:42	16:06:42:109	13	1	Practice_NoThink	fixation	0	5	1500	0	0	1	1495	1	+	-16	0	0	0	0	0	0
18	2023-04-19	15:41:47	16:06:43	16:06:43:122	13	2	Practice_NoThink	NoThink	0	5	0	0	0	0	1000	1	DON'T THINK	-16	0	0	0	0	0	0
18	2023-04-19	15:41:47	16:06:48	16:06:48:139	13	3	Practice_NoThink	NoThinkCue	0	5	0	0	0	1	5000	2	Cue40.jpg	-16	0	0	0	0	0	0
18	2023-04-19	15:41:47	16:06:50	16:06:50:646	13	4	Practice_NoThink	Intrusion	0	500	3000	0	0	0	2500	1	How <b>often</b> did you <b>think</b> about the <b>scene</b>?   <center><br><b>NEVER (1)    BRIEFLY (2)   OFTEN (3) </b>	-16	0	0	0	0	0	0
18	2023-04-19	15:41:47	16:06:52	16:06:52:143	14	1	Practice_Think	fixation	0	5	1000	0	0	1	995	1	+	-16	0	0	0	0	0	0
18	2023-04-19	15:41:47	16:06:53	16:06:53:156	14	2	Practice_Think	Think	0	5	0	0	0	0	1000	1	THINK	-16	0	0	0	0	0	0
18	2023-04-19	15:41:47	16:06:58	16:06:58:172	14	3	Practice_Think	ThinkCue	0	5	0	0	0	1	5000	1	Cue37.jpg	-16	0	0	0	0	0	0
18	2023-04-19	15:41:47	16:06:59	16:06:59:680	14	4	Practice_Think	Intrusion	0	1500	3000	0	0	0	1500	1	How <b>often</b> did you <b>think</b> about the <b>scene</b>?   <center><br><b>NEVER (1)    BRIEFLY (2)   OFTEN (3) </b>	-16	0	0	0	0	0	0
18	2023-04-19	15:41:47	16:07:01	16:07:01:677	15	1	Practice_NoThink	fixation	0	5	500	0	0	1	495	1	+	-16	0	0	0	0	0	0
18	2023-04-19	15:41:47	16:07:02	16:07:02:690	15	2	Practice_NoThink	NoThink	0	5	0	0	0	0	1000	1	DON'T THINK	-16	0	0	0	0	0	0
18	2023-04-19	15:41:47	16:07:07	16:07:07:706	15	3	Practice_NoThink	NoThinkCue	0	5	0	0	0	1	5000	1	Cue39.jpg	-16	0	0	0	0	0	0
18	2023-04-19	15:41:47	16:07:09	16:07:09:714	15	4	Practice_NoThink	Intrusion	0	1000	3000	0	0	0	2000	1	How <b>often</b> did you <b>think</b> about the <b>scene</b>?   <center><br><b>NEVER (1)    BRIEFLY (2)   OFTEN (3) </b>	-16	0	0	0	0	0	0
18	2023-04-19	15:41:47	16:07:33	16:07:33:054	1	1	countdown	instructions	0	5	0	0	57	0	2463	1	<center><br><br> <b>WATCH CALLIBRATION</b>.                <br><br><br><br>In a couple of seconds a <b>countdown</b> will start that counts down from 3 to 1,       <br><br>after which the screen will show the instruction <b>PRESS BUTTON</b>.       <br><br><b>As soon as you see that screen</b>, you must shortly press the button on your watch.       <br><br> <br><br> Press SPACE  to continue.	-5	0	0	0	0	0	0
18	2023-04-19	15:41:47	16:07:34	16:07:34:075	1	2	countdown	countdown_3	0	5	0	0	0	0	1000	1	3	-9	0	0	0	0	0	0
18	2023-04-19	15:41:47	16:07:35	16:07:35:091	1	3	countdown	countdown_2	0	5	0	0	0	0	1000	1	2	-16	0	0	0	0	0	0
18	2023-04-19	15:41:47	16:07:36	16:07:36:108	1	4	countdown	countdown_1	0	5	0	0	0	0	1000	1	1	-16	0	0	0	0	0	0
18	2023-04-19	15:41:47	16:07:37	16:07:37:125	1	5	countdown	press_button	0	5	0	0	0	0	1000	1	PRESS BUTTON NOW	-16	0	0	0	0	0	0
18	2023-04-19	15:41:47	16:08:44	16:08:44:02	2	1	TNT_Think_CSp	fixation	0	5	1000	0	0	1	995	1	+	-9	0	0	0	0	0	0
18	2023-04-19	15:41:47	16:08:45	16:08:45:019	2	2	TNT_Think_CSp	Think	0	5	0	0	0	0	1000	1	THINK	-16	0	0	0	0	0	0
18	2023-04-19	15:41:47	16:08:50	16:08:50:036	2	3	TNT_Think_CSp	TNT_Think_CSp	0	5	0	0	0	0	5000	2	Cue13.jpg	-16	0	0	0	0	0	0
18	2023-04-19	15:41:47	16:08:51	16:08:51:543	2	4	TNT_Think_CSp	Intrusion	0	1500	3000	0	0	0	1500	1	How <b>often</b> did you <b>think</b> about the <b>scene</b>?   <center><br><b>NEVER (1)    BRIEFLY (2)   OFTEN (3) </b>	-16	0	0	0	0	0	0
18	2023-04-19	15:41:47	16:08:53	16:08:53:539	3	1	TNT_NoThink_CSm	fixation	0	5	500	0	0	1	495	1	+	-8	0	0	0	0	0	0
18	2023-04-19	15:41:47	16:08:54	16:08:54:553	3	2	TNT_NoThink_CSm	NoThink	0	5	0	0	0	0	1000	1	DON'T THINK	-16	0	0	0	0	0	0
18	2023-04-19	15:41:47	16:08:59	16:08:59:570	3	3	TNT_NoThink_CSm	TNT_NoThink_CSm	0	5	0	0	0	0	5000	3	Cue17.jpg	-16	0	0	0	0	0	0
18	2023-04-19	15:41:47	16:09:00	16:09:00:028	3	4	TNT_NoThink_CSm	Intrusion	0	1000	3000	0	3	1	442	1	How <b>often</b> did you <b>think</b> about the <b>scene</b>?   <center><br><b>NEVER (1)    BRIEFLY (2)   OFTEN (3) </b>	-16	0	0	0	0	0	0
18	2023-04-19	15:41:47	16:09:04	16:09:04:074	4	1	TNT_NoThink_CSm	fixation	0	5	1500	0	0	1	1495	1	+	-16	0	0	0	0	0	0
18	2023-04-19	15:41:47	16:09:05	16:09:05:087	4	2	TNT_NoThink_CSm	NoThink	0	5	0	0	0	0	1000	1	DON'T THINK	-16	0	0	0	0	0	0
18	2023-04-19	15:41:47	16:09:10	16:09:10:104	4	3	TNT_NoThink_CSm	TNT_NoThink_CSm	0	5	0	0	0	0	5000	2	Cue5.jpg	-16	0	0	0	0	0	0
18	2023-04-19	15:41:47	16:09:10	16:09:10:620	4	4	TNT_NoThink_CSm	Intrusion	0	500	3000	0	3	1	499	1	How <b>often</b> did you <b>think</b> about the <b>scene</b>?   <center><br><b>NEVER (1)    BRIEFLY (2)   OFTEN (3) </b>	-16	0	0	0	0	0	0
18	2023-04-19	15:41:47	16:09:14	16:09:14:608	5	1	TNT_NoThink_CSp	fixation	0	5	1500	0	0	1	1495	1	+	-16	0	0	0	0	0	0
18	2023-04-19	15:41:47	16:09:15	16:09:15:621	5	2	TNT_NoThink_CSp	NoThink	0	5	0	0	0	0	1000	1	DON'T THINK	-16	0	0	0	0	0	0
18	2023-04-19	15:41:47	16:09:21	16:09:21:638	5	3	TNT_NoThink_CSp	TNT_NoThink_CSp	0	5	0	0	0	0	5000	1	Cue10.jpg	-16	0	0	0	0	0	0
18	2023-04-19	15:41:47	16:09:22	16:09:22:740	5	4	TNT_NoThink_CSp	Intrusion	0	500	3000	0	2	1	1085	1	How <b>often</b> did you <b>think</b> about the <b>scene</b>?   <center><br><b>NEVER (1)    BRIEFLY (2)   OFTEN (3) </b>	-16	0	0	0	0	0	0
18	2023-04-19	15:41:47	16:09:24	16:09:24:142	6	1	TNT_Think_CSm	fixation	0	5	500	0	0	1	495	1	+	-16	0	0	0	0	0	0
18	2023-04-19	15:41:47	16:09:25	16:09:25:155	6	2	TNT_Think_CSm	Think	0	5	0	0	0	0	1000	1	THINK	-16	0	0	0	0	0	0
18	2023-04-19	15:41:47	16:09:30	16:09:30:171	6	3	TNT_Think_CSm	TNT_Think_CSm	0	5	0	0	0	0	5000	5	Cue27.jpg	-16	0	0	0	0	0	0
18	2023-04-19	15:41:47	16:09:31	16:09:31:628	6	4	TNT_Think_CSm	Intrusion	0	1000	3000	0	4	1	1439	1	How <b>often</b> did you <b>think</b> about the <b>scene</b>?   <center><br><b>NEVER (1)    BRIEFLY (2)   OFTEN (3) </b>	-16	0	0	0	0	0	0
18	2023-04-19	15:41:47	16:09:34	16:09:34:175	7	1	TNT_Object_CSm	fixation	0	5	1000	0	0	1	995	1	+	-9	0	0	0	0	0	0
18	2023-04-19	15:41:47	16:09:35	16:09:35:188	7	2	TNT_Object_CSm	Passive	0	5	0	0	0	0	1000	1	VIEW	-16	0	0	0	0	0	0
18	2023-04-19	15:41:47	16:09:40	16:09:40:205	7	3	TNT_Object_CSm	TNT_Object_CSm	0	500	0	0	0	0	5000	4	Object2.jpg	-16	0	0	0	0	0	0
18	2023-04-19	15:41:47	16:09:41	16:09:41:205	8	1	TNT_Object_CSm	fixation	0	5	500	0	0	1	495	1	+	-9	0	0	0	0	0	0
18	2023-04-19	15:41:47	16:09:42	16:09:42:222	8	2	TNT_Object_CSm	Passive	0	5	0	0	0	0	1000	1	VIEW	-16	0	0	0	0	0	0
18	2023-04-19	15:41:47	16:09:47	16:09:47:239	8	3	TNT_Object_CSm	TNT_Object_CSm	0	1500	0	0	0	0	5000	1	Object1.jpg	-16	0	0	0	0	0	0
18	2023-04-19	15:41:47	16:09:50	16:09:50:738	9	1	TNT_NoThink_CSp	fixation	0	5	1000	0	0	1	995	1	+	-8	0	0	0	0	0	0
18	2023-04-19	15:41:47	16:09:51	16:09:51:756	9	2	TNT_NoThink_CSp	NoThink	0	5	0	0	0	0	1000	1	DON'T THINK	-16	0	0	0	0	0	0
18	2023-04-19	15:41:47	16:09:56	16:09:56:773	9	3	TNT_NoThink_CSp	TNT_NoThink_CSp	0	5	0	0	0	0	5000	3	Cue2.jpg	-16	0	0	0	0	0	0
18	2023-04-19	15:41:47	16:09:56	16:09:56:428	9	4	TNT_NoThink_CSp	Intrusion	0	1500	3000	0	3	1	638	1	How <b>often</b> did you <b>think</b> about the <b>scene</b>?   <center><br><b>NEVER (1)    BRIEFLY (2)   OFTEN (3) </b>	-16	0	0	0	0	0	0
18	2023-04-19	15:41:47	16:10:00	16:10:00:276	10	1	TNT_Think_CSp	fixation	0	5	1500	0	0	1	1495	1	+	-16	0	0	0	0	0	0
18	2023-04-19	15:41:47	16:10:01	16:10:01:290	10	2	TNT_Think_CSp	Think	0	5	0	0	0	0	1000	1	THINK	-16	0	0	0	0	0	0
18	2023-04-19	15:41:47	16:10:06	16:10:06:307	10	3	TNT_Think_CSp	TNT_Think_CSp	0	5	0	0	0	0	5000	5	Cue4.jpg	-16	0	0	0	0	0	0
18	2023-04-19	15:41:47	16:10:07	16:10:07:388	10	4	TNT_Think_CSp	Intrusion	0	1000	3000	0	4	1	1064	1	How <b>often</b> did you <b>think</b> about the <b>scene</b>?   <center><br><b>NEVER (1)    BRIEFLY (2)   OFTEN (3) </b>	-16	0	0	0	0	0	0
18	2023-04-19	15:41:47	16:10:10	16:10:10:810	11	1	TNT_NoThink_CSm	fixation	0	5	500	0	0	1	495	1	+	-9	0	0	0	0	0	0
18	2023-04-19	15:41:47	16:10:11	16:10:11:824	11	2	TNT_NoThink_CSm	NoThink	0	5	0	0	0	0	1000	1	DON'T THINK	-16	0	0	0	0	0	0
18	2023-04-19	15:41:47	16:10:16	16:10:16:841	11	3	TNT_NoThink_CSm	TNT_NoThink_CSm	0	5	0	0	0	0	5000	6	Cue1.jpg	-16	0	0	0	0	0	0
18	2023-04-19	15:41:47	16:10:16	16:10:16:300	11	4	TNT_NoThink_CSm	Intrusion	0	1500	3000	0	2	1	442	1	How <b>often</b> did you <b>think</b> about the <b>scene</b>?   <center><br><b>NEVER (1)    BRIEFLY (2)   OFTEN (3) </b>	-16	0	0	0	0	0	0
18	2023-04-19	15:41:47	16:10:20	16:10:20:845	12	1	TNT_Object_CSp	fixation	0	5	1000	0	0	1	995	1	+	-8	0	0	0	0	0	0
18	2023-04-19	15:41:47	16:10:21	16:10:21:858	12	2	TNT_Object_CSp	Passive	0	5	0	0	0	0	1000	1	VIEW	-16	0	0	0	0	0	0
18	2023-04-19	15:41:47	16:10:26	16:10:26:875	12	3	TNT_Object_CSp	TNT_Object_CSp	0	1500	0	0	0	0	5000	3	Object3.jpg	-16	0	0	0	0	0	0
18	2023-04-19	15:41:47	16:10:29	16:10:29:874	13	1	TNT_Think_CSm	fixation	0	5	1500	0	0	1	1495	1	+	-8	0	0	0	0	0	0
18	2023-04-19	15:41:47	16:10:30	16:10:30:892	13	2	TNT_Think_CSm	Think	0	5	0	0	0	0	1000	1	THINK	-16	0	0	0	0	0	0
18	2023-04-19	15:41:47	16:10:35	16:10:35:908	13	3	TNT_Think_CSm	TNT_Think_CSm	0	5	0	0	0	0	5000	6	Cue22.jpg	-16	0	0	0	0	0	0
18	2023-04-19	15:41:47	16:10:37	16:10:37:276	13	4	TNT_Think_CSm	Intrusion	0	500	3000	0	4	1	2351	1	How <b>often</b> did you <b>think</b> about the <b>scene</b>?   <center><br><b>NEVER (1)    BRIEFLY (2)   OFTEN (3) </b>	-16	0	0	0	0	0	0
18	2023-04-19	15:41:47	16:10:39	16:10:39:912	14	1	TNT_Object_CSm	fixation	0	5	1000	0	0	1	995	1	+	-9	0	0	0	0	0	0
18	2023-04-19	15:41:47	16:10:40	16:10:40:926	14	2	TNT_Object_CSm	Passive	0	5	0	0	0	0	1000	1	VIEW	-16	0	0	0	0	0	0
18	2023-04-19	15:41:47	16:10:45	16:10:45:942	14	3	TNT_Object_CSm	TNT_Object_CSm	0	1000	0	0	0	0	5000	2	Object6.jpg	-16	0	0	0	0	0	0
18	2023-04-19	15:41:47	16:10:47	16:10:47:442	15	1	TNT_NoThink_CSm	fixation	0	5	1500	0	0	1	1495	1	+	-9	0	0	0	0	0	0
18	2023-04-19	15:41:47	16:10:48	16:10:48:460	15	2	TNT_NoThink_CSm	NoThink	0	5	0	0	0	0	1000	1	DON'T THINK	-16	0	0	0	0	0	0
18	2023-04-19	15:41:47	16:10:53	16:10:53:476	15	3	TNT_NoThink_CSm	TNT_NoThink_CSm	0	5	0	0	0	0	5000	1	Cue20.jpg	-16	0	0	0	0	0	0
18	2023-04-19	15:41:47	16:10:54	16:10:54:156	15	4	TNT_NoThink_CSm	Intrusion	0	1000	3000	0	3	1	663	1	How <b>often</b> did you <b>think</b> about the <b>scene</b>?   <center><br><b>NEVER (1)    BRIEFLY (2)   OFTEN (3) </b>	-16	0	0	0	0	0	0
18	2023-04-19	15:41:47	16:10:57	16:10:57:980	16	1	TNT_NoThink_CSm	fixation	0	5	500	0	0	1	495	1	+	-9	0	0	0	0	0	0
18	2023-04-19	15:41:47	16:10:58	16:10:58:994	16	2	TNT_NoThink_CSm	NoThink	0	5	0	0	0	0	1000	1	DON'T THINK	-16	0	0	0	0	0	0
18	2023-04-19	15:41:47	16:11:03	16:11:03:010	16	3	TNT_NoThink_CSm	TNT_NoThink_CSm	0	5	0	0	0	0	5000	4	Cue14.jpg	-16	0	0	0	0	0	0
18	2023-04-19	15:41:47	16:11:04	16:11:04:644	16	4	TNT_NoThink_CSm	Intrusion	0	1500	3000	0	2	1	617	1	How <b>often</b> did you <b>think</b> about the <b>scene</b>?   <center><br><b>NEVER (1)    BRIEFLY (2)   OFTEN (3) </b>	-16	0	0	0	0	0	0
18	2023-04-19	15:41:47	16:11:07	16:11:07:514	17	1	TNT_NoThink_CSp	fixation	0	5	1500	0	0	1	1495	1	+	-9	0	0	0	0	0	0
18	2023-04-19	15:41:47	16:11:08	16:11:08:527	17	2	TNT_NoThink_CSp	NoThink	0	5	0	0	0	0	1000	1	DON'T THINK	-16	0	0	0	0	0	0
18	2023-04-19	15:41:47	16:11:13	16:11:13:544	17	3	TNT_NoThink_CSp	TNT_NoThink_CSp	0	5	0	0	0	0	5000	6	Cue31.jpg	-16	0	0	0	0	0	0
18	2023-04-19	15:41:47	16:11:14	16:11:14:060	17	4	TNT_NoThink_CSp	Intrusion	0	500	3000	0	3	1	499	1	How <b>often</b> did you <b>think</b> about the <b>scene</b>?   <center><br><b>NEVER (1)    BRIEFLY (2)   OFTEN (3) </b>	-16	0	0	0	0	0	0
18	2023-04-19	15:41:47	16:11:17	16:11:17:048	18	1	TNT_NoThink_CSm	fixation	0	5	500	0	0	1	495	1	+	-9	0	0	0	0	0	0
18	2023-04-19	15:41:47	16:11:18	16:11:18:062	18	2	TNT_NoThink_CSm	NoThink	0	5	0	0	0	0	1000	1	DON'T THINK	-16	0	0	0	0	0	0
18	2023-04-19	15:41:47	16:11:23	16:11:23:078	18	3	TNT_NoThink_CSm	TNT_NoThink_CSm	0	5	0	0	0	0	5000	5	Cue36.jpg	-16	0	0	0	0	0	0
18	2023-04-19	15:41:47	16:11:23	16:11:23:484	18	4	TNT_NoThink_CSm	Intrusion	0	1000	3000	0	3	1	389	1	How <b>often</b> did you <b>think</b> about the <b>scene</b>?   <center><br><b>NEVER (1)    BRIEFLY (2)   OFTEN (3) </b>	-16	0	0	0	0	0	0
18	2023-04-19	15:41:47	16:11:27	16:11:27:082	19	1	TNT_Object_CSp	fixation	0	5	1000	0	0	1	995	1	+	-9	0	0	0	0	0	0
18	2023-04-19	15:41:47	16:11:28	16:11:28:095	19	2	TNT_Object_CSp	Passive	0	5	0	0	0	0	1000	1	VIEW	-16	0	0	0	0	0	0
18	2023-04-19	15:41:47	16:11:33	16:11:33:112	19	3	TNT_Object_CSp	TNT_Object_CSp	0	1000	0	0	0	0	5000	4	Object5.jpg	-16	0	0	0	0	0	0
18	2023-04-19	15:41:47	16:11:34	16:11:34:612	20	1	TNT_NoThink_CSp	fixation	0	5	500	0	0	1	495	1	+	-8	0	0	0	0	0	0
18	2023-04-19	15:41:47	16:11:35	16:11:35:629	20	2	TNT_NoThink_CSp	NoThink	0	5	0	0	0	0	1000	1	DON'T THINK	-16	0	0	0	0	0	0
18	2023-04-19	15:41:47	16:11:41	16:11:41:646	20	3	TNT_NoThink_CSp	TNT_NoThink_CSp	0	5	0	0	0	0	5000	2	Cue33.jpg	-16	0	0	0	0	0	0
18	2023-04-19	15:41:47	16:11:41	16:11:41:020	20	4	TNT_NoThink_CSp	Intrusion	0	500	3000	0	3	1	357	1	How <b>often</b> did you <b>think</b> about the <b>scene</b>?   <center><br><b>NEVER (1)    BRIEFLY (2)   OFTEN (3) </b>	-16	0	0	0	0	0	0
18	2023-04-19	15:41:47	16:11:45	16:11:45:650	21	1	TNT_NoThink_CSp	fixation	0	5	1000	0	0	1	995	1	+	2	0	0	0	0	0	0
18	2023-04-19	15:41:47	16:11:46	16:11:46:663	21	2	TNT_NoThink_CSp	NoThink	0	5	0	0	0	0	1000	1	DON'T THINK	-16	0	0	0	0	0	0
18	2023-04-19	15:41:47	16:11:51	16:11:51:680	21	3	TNT_NoThink_CSp	TNT_NoThink_CSp	0	5	0	0	0	0	5000	4	Cue3.jpg	-16	0	0	0	0	0	0
18	2023-04-19	15:41:47	16:11:51	16:11:51:04	21	4	TNT_NoThink_CSp	Intrusion	0	1500	3000	0	3	1	308	1	How <b>often</b> did you <b>think</b> about the <b>scene</b>?   <center><br><b>NEVER (1)    BRIEFLY (2)   OFTEN (3) </b>	-16	0	0	0	0	0	0
18	2023-04-19	15:41:47	16:11:55	16:11:55:184	22	1	TNT_Think_CSm	fixation	0	5	1500	0	0	1	1495	1	+	-16	0	0	0	0	0	0
18	2023-04-19	15:41:47	16:11:56	16:11:56:197	22	2	TNT_Think_CSm	Think	0	5	0	0	0	0	1000	1	THINK	-16	0	0	0	0	0	0
18	2023-04-19	15:41:47	16:12:01	16:12:01:214	22	3	TNT_Think_CSm	TNT_Think_CSm	0	5	0	0	0	0	5000	2	Cue12.jpg	-16	0	0	0	0	0	0
18	2023-04-19	15:41:47	16:12:02	16:12:02:676	22	4	TNT_Think_CSm	Intrusion	0	1500	3000	0	4	1	445	1	How <b>often</b> did you <b>think</b> about the <b>scene</b>?   <center><br><b>NEVER (1)    BRIEFLY (2)   OFTEN (3) </b>	-16	0	0	0	0	0	0
18	2023-04-19	15:41:47	16:12:05	16:12:05:218	23	1	TNT_Think_CSp	fixation	0	5	1000	0	0	1	995	1	+	-16	0	0	0	0	0	0
18	2023-04-19	15:41:47	16:12:06	16:12:06:230	23	2	TNT_Think_CSp	Think	0	5	0	0	0	0	1000	1	THINK	-16	0	0	0	0	0	0
18	2023-04-19	15:41:47	16:12:11	16:12:11:247	23	3	TNT_Think_CSp	TNT_Think_CSp	0	5	0	0	0	0	5000	3	Cue25.jpg	-16	0	0	0	0	0	0
18	2023-04-19	15:41:47	16:12:13	16:12:13:260	23	4	TNT_Think_CSp	Intrusion	0	500	3000	0	4	1	1995	1	How <b>often</b> did you <b>think</b> about the <b>scene</b>?   <center><br><b>NEVER (1)    BRIEFLY (2)   OFTEN (3) </b>	-16	0	0	0	0	0	0
18	2023-04-19	15:41:47	16:12:15	16:12:15:751	24	1	TNT_Think_CSp	fixation	0	5	500	0	0	1	495	1	+	-1	0	0	0	0	0	0
18	2023-04-19	15:41:47	16:12:16	16:12:16:764	24	2	TNT_Think_CSp	Think	0	5	0	0	0	0	1000	1	THINK	-16	0	0	0	0	0	0
18	2023-04-19	15:41:47	16:12:21	16:12:21:781	24	3	TNT_Think_CSp	TNT_Think_CSp	0	5	0	0	0	0	5000	1	Cue6.jpg	-16	0	0	0	0	0	0
18	2023-04-19	15:41:47	16:12:21	16:12:21:228	24	4	TNT_Think_CSp	Intrusion	0	1000	3000	0	4	1	430	1	How <b>often</b> did you <b>think</b> about the <b>scene</b>?   <center><br><b>NEVER (1)    BRIEFLY (2)   OFTEN (3) </b>	-16	0	0	0	0	0	0
18	2023-04-19	15:41:47	16:12:25	16:12:25:285	25	1	TNT_Object_CSm	fixation	0	5	1500	0	0	1	1495	1	+	-9	0	0	0	0	0	0
18	2023-04-19	15:41:47	16:12:26	16:12:26:298	25	2	TNT_Object_CSm	Passive	0	5	0	0	0	0	1000	1	VIEW	-16	0	0	0	0	0	0
18	2023-04-19	15:41:47	16:12:31	16:12:31:315	25	3	TNT_Object_CSm	TNT_Object_CSm	0	500	0	0	0	0	5000	3	Object4.jpg	-16	0	0	0	0	0	0
18	2023-04-19	15:41:47	16:12:32	16:12:32:315	26	1	TNT_Think_CSp	fixation	0	5	500	0	0	1	495	1	+	-9	0	0	0	0	0	0
18	2023-04-19	15:41:47	16:12:33	16:12:33:332	26	2	TNT_Think_CSp	Think	0	5	0	0	0	0	1000	1	THINK	-16	0	0	0	0	0	0
18	2023-04-19	15:41:47	16:12:38	16:12:38:349	26	3	TNT_Think_CSp	TNT_Think_CSp	0	5	0	0	0	0	5000	4	Cue7.jpg	-16	0	0	0	0	0	0
18	2023-04-19	15:41:47	16:12:39	16:12:39:668	26	4	TNT_Think_CSp	Intrusion	0	500	3000	0	4	1	302	1	How <b>often</b> did you <b>think</b> about the <b>scene</b>?   <center><br><b>NEVER (1)    BRIEFLY (2)   OFTEN (3) </b>	-16	0	0	0	0	0	0
18	2023-04-19	15:41:47	16:12:43	16:12:43:853	27	1	TNT_NoThink_CSp	fixation	0	5	1500	0	0	1	1495	1	+	-9	0	0	0	0	0	0
18	2023-04-19	15:41:47	16:12:44	16:12:44:866	27	2	TNT_NoThink_CSp	NoThink	0	5	0	0	0	0	1000	1	DON'T THINK	-16	0	0	0	0	0	0
18	2023-04-19	15:41:47	16:12:49	16:12:49:883	27	3	TNT_NoThink_CSp	TNT_NoThink_CSp	0	5	0	0	0	0	5000	5	Cue32.jpg	-16	0	0	0	0	0	0
18	2023-04-19	15:41:47	16:12:49	16:12:49:308	27	4	TNT_NoThink_CSp	Intrusion	0	1000	3000	0	3	1	408	1	How <b>often</b> did you <b>think</b> about the <b>scene</b>?   <center><br><b>NEVER (1)    BRIEFLY (2)   OFTEN (3) </b>	-16	0	0	0	0	0	0
18	2023-04-19	15:41:47	16:12:53	16:12:53:887	28	1	TNT_Object_CSp	fixation	0	5	1000	0	0	1	995	1	+	-8	0	0	0	0	0	0
18	2023-04-19	15:41:47	16:12:54	16:12:54:900	28	2	TNT_Object_CSp	Passive	0	5	0	0	0	0	1000	1	VIEW	-16	0	0	0	0	0	0
18	2023-04-19	15:41:47	16:12:59	16:12:59:917	28	3	TNT_Object_CSp	TNT_Object_CSp	0	500	0	0	0	0	5000	2	Object8.jpg	-16	0	0	0	0	0	0
18	2023-04-19	15:41:47	16:13:00	16:13:00:415	29	1	TNT_Think_CSm	fixation	0	5	1000	0	0	1	995	1	+	-9	0	0	0	0	0	0
18	2023-04-19	15:41:47	16:13:01	16:13:01:434	29	2	TNT_Think_CSm	Think	0	5	0	0	0	0	1000	1	THINK	-16	0	0	0	0	0	0
18	2023-04-19	15:41:47	16:13:06	16:13:06:451	29	3	TNT_Think_CSm	TNT_Think_CSm	0	5	0	0	0	0	5000	4	Cue18.jpg	-16	0	0	0	0	0	0
18	2023-04-19	15:41:47	16:13:07	16:13:07:324	29	4	TNT_Think_CSm	Intrusion	0	1500	3000	0	4	1	856	1	How <b>often</b> did you <b>think</b> about the <b>scene</b>?   <center><br><b>NEVER (1)    BRIEFLY (2)   OFTEN (3) </b>	-16	0	0	0	0	0	0
18	2023-04-19	15:41:47	16:13:11	16:13:11:955	30	1	TNT_Think_CSm	fixation	0	5	1500	0	0	1	1495	1	+	-9	0	0	0	0	0	0
18	2023-04-19	15:41:47	16:13:12	16:13:12:968	30	2	TNT_Think_CSm	Think	0	5	0	0	0	0	1000	1	THINK	-16	0	0	0	0	0	0
18	2023-04-19	15:41:47	16:13:17	16:13:17:985	30	3	TNT_Think_CSm	TNT_Think_CSm	0	5	0	0	0	0	5000	3	Cue21.jpg	-16	0	0	0	0	0	0
18	2023-04-19	15:41:47	16:13:18	16:13:18:644	30	4	TNT_Think_CSm	Intrusion	0	500	3000	0	4	1	642	1	How <b>often</b> did you <b>think</b> about the <b>scene</b>?   <center><br><b>NEVER (1)    BRIEFLY (2)   OFTEN (3) </b>	-16	0	0	0	0	0	0
18	2023-04-19	15:41:47	16:13:20	16:13:20:489	31	1	TNT_Think_CSp	fixation	0	5	500	0	0	1	495	1	+	-9	0	0	0	0	0	0
18	2023-04-19	15:41:47	16:13:21	16:13:21:502	31	2	TNT_Think_CSp	Think	0	5	0	0	0	0	1000	1	THINK	-16	0	0	0	0	0	0
18	2023-04-19	15:41:47	16:13:26	16:13:26:519	31	3	TNT_Think_CSp	TNT_Think_CSp	0	5	0	0	0	0	5000	6	Cue29.jpg	-16	0	0	0	0	0	0
18	2023-04-19	15:41:47	16:13:27	16:13:27:084	31	4	TNT_Think_CSp	Intrusion	0	1500	3000	0	4	1	549	1	How <b>often</b> did you <b>think</b> about the <b>scene</b>?   <center><br><b>NEVER (1)    BRIEFLY (2)   OFTEN (3) </b>	-16	0	0	0	0	0	0
18	2023-04-19	15:41:47	16:13:30	16:13:30:523	32	1	TNT_Object_CSp	fixation	0	5	1000	0	0	1	995	1	+	-9	0	0	0	0	0	0
18	2023-04-19	15:41:47	16:13:31	16:13:31:535	32	2	TNT_Object_CSp	Passive	0	5	0	0	0	0	1000	1	VIEW	-16	0	0	0	0	0	0
18	2023-04-19	15:41:47	16:13:36	16:13:36:552	32	3	TNT_Object_CSp	TNT_Object_CSp	0	1000	0	0	0	0	5000	1	Object7.jpg	-16	0	0	0	0	0	0
18	2023-04-19	15:41:47	16:13:39	16:13:39:052	33	1	TNT_Think_CSm	fixation	0	5	1500	0	0	1	1495	1	+	-9	0	0	0	0	0	0
18	2023-04-19	15:41:47	16:13:40	16:13:40:069	33	2	TNT_Think_CSm	Think	0	5	0	0	0	0	1000	1	THINK	-16	0	0	0	0	0	0
18	2023-04-19	15:41:47	16:13:45	16:13:45:086	33	3	TNT_Think_CSm	TNT_Think_CSm	0	5	0	0	0	0	5000	1	Cue16.jpg	-16	0	0	0	0	0	0
18	2023-04-19	15:41:47	16:13:46	16:13:46:884	33	4	TNT_Think_CSm	Intrusion	0	1000	3000	0	4	1	781	1	How <b>often</b> did you <b>think</b> about the <b>scene</b>?   <center><br><b>NEVER (1)    BRIEFLY (2)   OFTEN (3) </b>	-16	0	0	0	0	0	0
18	2023-04-19	15:41:47	16:13:48	16:13:48:590	34	1	TNT_NoThink_CSp	fixation	0	5	500	0	0	1	495	1	+	-8	0	0	0	0	0	0
18	2023-04-19	15:41:47	16:13:49	16:13:49:604	34	2	TNT_NoThink_CSp	NoThink	0	5	0	0	0	0	1000	1	DON'T THINK	-16	0	0	0	0	0	0
18	2023-04-19	15:41:47	16:13:54	16:13:54:620	34	3	TNT_NoThink_CSp	TNT_NoThink_CSp	0	5	0	0	0	0	5000	6	Cue31.jpg	-16	0	0	0	0	0	0
18	2023-04-19	15:41:47	16:13:55	16:13:55:100	34	4	TNT_NoThink_CSp	Intrusion	0	1000	3000	0	3	1	463	1	How <b>often</b> did you <b>think</b> about the <b>scene</b>?   <center><br><b>NEVER (1)    BRIEFLY (2)   OFTEN (3) </b>	-16	0	0	0	0	0	0
18	2023-04-19	15:41:47	16:13:58	16:13:58:624	35	1	TNT_NoThink_CSp	fixation	0	5	1000	0	0	1	995	1	+	-6	0	0	0	0	0	0
18	2023-04-19	15:41:47	16:13:59	16:13:59:638	35	2	TNT_NoThink_CSp	NoThink	0	5	0	0	0	0	1000	1	DON'T THINK	-16	0	0	0	0	0	0
18	2023-04-19	15:41:47	16:14:05	16:14:05:654	35	3	TNT_NoThink_CSp	TNT_NoThink_CSp	0	5	0	0	0	0	5000	4	Cue3.jpg	-16	0	0	0	0	0	0
18	2023-04-19	15:41:47	16:14:05	16:14:05:132	35	4	TNT_NoThink_CSp	Intrusion	0	1500	3000	0	3	1	461	1	How <b>often</b> did you <b>think</b> about the <b>scene</b>?   <center><br><b>NEVER (1)    BRIEFLY (2)   OFTEN (3) </b>	-16	0	0	0	0	0	0
18	2023-04-19	15:41:47	16:14:09	16:14:09:158	36	1	TNT_Object_CSp	fixation	0	5	1500	0	0	1	1495	1	+	-8	0	0	0	0	0	0
18	2023-04-19	15:41:47	16:14:10	16:14:10:171	36	2	TNT_Object_CSp	Passive	0	5	0	0	0	0	1000	1	VIEW	-16	0	0	0	0	0	0
18	2023-04-19	15:41:47	16:14:15	16:14:15:188	36	3	TNT_Object_CSp	TNT_Object_CSp	0	500	0	0	0	0	5000	3	Object3.jpg	-16	0	0	0	0	0	0
18	2023-04-19	15:41:47	16:14:16	16:14:16:188	37	1	TNT_Think_CSp	fixation	0	5	500	0	0	1	495	1	+	-9	0	0	0	0	0	0
18	2023-04-19	15:41:47	16:14:17	16:14:17:205	37	2	TNT_Think_CSp	Think	0	5	0	0	0	0	1000	1	THINK	-16	0	0	0	0	0	0
18	2023-04-19	15:41:47	16:14:22	16:14:22:222	37	3	TNT_Think_CSp	TNT_Think_CSp	0	5	0	0	0	0	5000	4	Cue7.jpg	-16	0	0	0	0	0	0
18	2023-04-19	15:41:47	16:14:22	16:14:22:476	37	4	TNT_Think_CSp	Intrusion	0	500	3000	0	4	1	237	1	How <b>often</b> did you <b>think</b> about the <b>scene</b>?   <center><br><b>NEVER (1)    BRIEFLY (2)   OFTEN (3) </b>	-16	0	0	0	0	0	0
18	2023-04-19	15:41:47	16:14:26	16:14:26:226	38	1	TNT_NoThink_CSp	fixation	0	5	1000	0	0	1	995	1	+	-9	0	0	0	0	0	0
18	2023-04-19	15:41:47	16:14:27	16:14:27:239	38	2	TNT_NoThink_CSp	NoThink	0	5	0	0	0	0	1000	1	DON'T THINK	-16	0	0	0	0	0	0
18	2023-04-19	15:41:47	16:14:32	16:14:32:256	38	3	TNT_NoThink_CSp	TNT_NoThink_CSp	0	5	0	0	0	0	5000	5	Cue32.jpg	-16	0	0	0	0	0	0
18	2023-04-19	15:41:47	16:14:33	16:14:33:636	38	4	TNT_NoThink_CSp	Intrusion	0	1000	3000	0	2	1	363	1	How <b>often</b> did you <b>think</b> about the <b>scene</b>?   <center><br><b>NEVER (1)    BRIEFLY (2)   OFTEN (3) </b>	-16	0	0	0	0	0	0
18	2023-04-19	15:41:47	16:14:37	16:14:37:759	39	1	TNT_Think_CSp	fixation	0	5	1500	0	0	1	1495	1	+	-9	0	0	0	0	0	0
18	2023-04-19	15:41:47	16:14:38	16:14:38:773	39	2	TNT_Think_CSp	Think	0	5	0	0	0	0	1000	1	THINK	-16	0	0	0	0	0	0
18	2023-04-19	15:41:47	16:14:43	16:14:43:790	39	3	TNT_Think_CSp	TNT_Think_CSp	0	5	0	0	0	0	5000	1	Cue6.jpg	-16	0	0	0	0	0	0
18	2023-04-19	15:41:47	16:14:43	16:14:43:084	39	4	TNT_Think_CSp	Intrusion	0	500	3000	0	4	1	277	1	How <b>often</b> did you <b>think</b> about the <b>scene</b>?   <center><br><b>NEVER (1)    BRIEFLY (2)   OFTEN (3) </b>	-16	0	0	0	0	0	0
18	2023-04-19	15:41:47	16:14:46	16:14:46:294	40	1	TNT_NoThink_CSm	fixation	0	5	500	0	0	1	495	1	+	-9	0	0	0	0	0	0
18	2023-04-19	15:41:47	16:14:47	16:14:47:307	40	2	TNT_NoThink_CSm	NoThink	0	5	0	0	0	0	1000	1	DON'T THINK	-16	0	0	0	0	0	0
18	2023-04-19	15:41:47	16:14:52	16:14:52:324	40	3	TNT_NoThink_CSm	TNT_NoThink_CSm	0	5	0	0	0	0	5000	2	Cue5.jpg	-16	0	0	0	0	0	0
18	2023-04-19	15:41:47	16:14:53	16:14:53:700	40	4	TNT_NoThink_CSm	Intrusion	0	1500	3000	0	2	1	359	1	How <b>often</b> did you <b>think</b> about the <b>scene</b>?   <center><br><b>NEVER (1)    BRIEFLY (2)   OFTEN (3) </b>	-16	0	0	0	0	0	0
18	2023-04-19	15:41:47	16:14:57	16:14:57:828	41	1	TNT_NoThink_CSm	fixation	0	5	1500	0	0	1	1495	1	+	-16	0	0	0	0	0	0
18	2023-04-19	15:41:47	16:14:58	16:14:58:841	41	2	TNT_NoThink_CSm	NoThink	0	5	0	0	0	0	1000	1	DON'T THINK	-16	0	0	0	0	0	0
18	2023-04-19	15:41:47	16:15:03	16:15:03:857	41	3	TNT_NoThink_CSm	TNT_NoThink_CSm	0	5	0	0	0	0	5000	4	Cue14.jpg	-16	0	0	0	0	0	0
18	2023-04-19	15:41:47	16:15:04	16:15:04:676	41	4	TNT_NoThink_CSm	Intrusion	0	1000	3000	0	2	1	801	1	How <b>often</b> did you <b>think</b> about the <b>scene</b>?   <center><br><b>NEVER (1)    BRIEFLY (2)   OFTEN (3) </b>	-16	0	0	0	0	0	0
18	2023-04-19	15:41:47	16:15:06	16:15:06:362	42	1	TNT_NoThink_CSp	fixation	0	5	500	0	0	1	495	1	+	-8	0	0	0	0	0	0
18	2023-04-19	15:41:47	16:15:07	16:15:07:375	42	2	TNT_NoThink_CSp	NoThink	0	5	0	0	0	0	1000	1	DON'T THINK	-16	0	0	0	0	0	0
18	2023-04-19	15:41:47	16:15:12	16:15:12:392	42	3	TNT_NoThink_CSp	TNT_NoThink_CSp	0	5	0	0	0	0	5000	1	Cue10.jpg	-16	0	0	0	0	0	0
18	2023-04-19	15:41:47	16:15:13	16:15:13:164	42	4	TNT_NoThink_CSp	Intrusion	0	1500	3000	0	2	1	755	1	How <b>often</b> did you <b>think</b> about the <b>scene</b>?   <center><br><b>NEVER (1)    BRIEFLY (2)   OFTEN (3) </b>	-16	0	0	0	0	0	0
18	2023-04-19	15:41:47	16:15:16	16:15:16:395	43	1	TNT_Object_CSp	fixation	0	5	1000	0	0	1	995	1	+	-16	0	0	0	0	0	0
18	2023-04-19	15:41:47	16:15:17	16:15:17:408	43	2	TNT_Object_CSp	Passive	0	5	0	0	0	0	1000	1	VIEW	-16	0	0	0	0	0	0
18	2023-04-19	15:41:47	16:15:22	16:15:22:425	43	3	TNT_Object_CSp	TNT_Object_CSp	0	1500	0	0	0	0	5000	2	Object8.jpg	-16	0	0	0	0	0	0
18	2023-04-19	15:41:47	16:15:25	16:15:25:925	44	1	TNT_Think_CSm	fixation	0	5	1000	0	0	1	995	1	+	-8	0	0	0	0	0	0
18	2023-04-19	15:41:47	16:15:26	16:15:26:942	44	2	TNT_Think_CSm	Think	0	5	0	0	0	0	1000	1	THINK	-16	0	0	0	0	0	0
18	2023-04-19	15:41:47	16:15:31	16:15:31:959	44	3	TNT_Think_CSm	TNT_Think_CSm	0	5	0	0	0	0	5000	6	Cue22.jpg	-16	0	0	0	0	0	0
18	2023-04-19	15:41:47	16:15:32	16:15:32:076	44	4	TNT_Think_CSm	Intrusion	0	500	3000	0	4	1	1100	1	How <b>often</b> did you <b>think</b> about the <b>scene</b>?   <center><br><b>NEVER (1)    BRIEFLY (2)   OFTEN (3) </b>	-16	0	0	0	0	0	0
18	2023-04-19	15:41:47	16:15:35	16:15:35:463	45	1	TNT_Think_CSm	fixation	0	5	1500	0	0	1	1495	1	+	-9	0	0	0	0	0	0
18	2023-04-19	15:41:47	16:15:36	16:15:36:476	45	2	TNT_Think_CSm	Think	0	5	0	0	0	0	1000	1	THINK	-16	0	0	0	0	0	0
18	2023-04-19	15:41:47	16:15:41	16:15:41:493	45	3	TNT_Think_CSm	TNT_Think_CSm	0	5	0	0	0	0	5000	4	Cue18.jpg	-16	0	0	0	0	0	0
18	2023-04-19	15:41:47	16:15:42	16:15:42:508	45	4	TNT_Think_CSm	Intrusion	0	1000	3000	0	4	1	998	1	How <b>often</b> did you <b>think</b> about the <b>scene</b>?   <center><br><b>NEVER (1)    BRIEFLY (2)   OFTEN (3) </b>	-16	0	0	0	0	0	0
18	2023-04-19	15:41:47	16:15:45	16:15:45:997	46	1	TNT_NoThink_CSp	fixation	0	5	500	0	0	1	495	1	+	-9	0	0	0	0	0	0
18	2023-04-19	15:41:47	16:15:46	16:15:46:011	46	2	TNT_NoThink_CSp	NoThink	0	5	0	0	0	0	1000	1	DON'T THINK	-16	0	0	0	0	0	0
18	2023-04-19	15:41:47	16:15:51	16:15:51:027	46	3	TNT_NoThink_CSp	TNT_NoThink_CSp	0	5	0	0	0	0	5000	3	Cue2.jpg	-16	0	0	0	0	0	0
18	2023-04-19	15:41:47	16:15:52	16:15:52:644	46	4	TNT_NoThink_CSp	Intrusion	0	1500	3000	0	2	1	600	1	How <b>often</b> did you <b>think</b> about the <b>scene</b>?   <center><br><b>NEVER (1)    BRIEFLY (2)   OFTEN (3) </b>	-16	0	0	0	0	0	0
18	2023-04-19	15:41:47	16:15:55	16:15:55:531	47	1	TNT_Think_CSm	fixation	0	5	1500	0	0	1	1495	1	+	-9	0	0	0	0	0	0
18	2023-04-19	15:41:47	16:15:56	16:15:56:544	47	2	TNT_Think_CSm	Think	0	5	0	0	0	0	1000	1	THINK	-16	0	0	0	0	0	0
18	2023-04-19	15:41:47	16:16:01	16:16:01:561	47	3	TNT_Think_CSm	TNT_Think_CSm	0	5	0	0	0	0	5000	2	Cue12.jpg	-16	0	0	0	0	0	0
18	2023-04-19	15:41:47	16:16:04	16:16:04:644	47	4	TNT_Think_CSm	Intrusion	0	500	3000	0	3	1	2066	1	How <b>often</b> did you <b>think</b> about the <b>scene</b>?   <center><br><b>NEVER (1)    BRIEFLY (2)   OFTEN (3) </b>	-16	0	0	0	0	0	0
18	2023-04-19	15:41:47	16:16:05	16:16:05:565	48	1	TNT_Object_CSm	fixation	0	5	1000	0	0	1	995	1	+	-9	0	0	0	0	0	0
18	2023-04-19	15:41:47	16:16:06	16:16:06:578	48	2	TNT_Object_CSm	Passive	0	5	0	0	0	0	1000	1	VIEW	-16	0	0	0	0	0	0
18	2023-04-19	15:41:47	16:16:11	16:16:11:595	48	3	TNT_Object_CSm	TNT_Object_CSm	0	1500	0	0	0	0	5000	1	Object1.jpg	-16	0	0	0	0	0	0
18	2023-04-19	15:41:47	16:16:13	16:16:13:594	49	1	TNT_Object_CSm	fixation	0	5	500	0	0	1	495	1	+	-9	0	0	0	0	0	0
18	2023-04-19	15:41:47	16:16:14	16:16:14:612	49	2	TNT_Object_CSm	Passive	0	5	0	0	0	0	1000	1	VIEW	-16	0	0	0	0	0	0
18	2023-04-19	15:41:47	16:16:19	16:16:19:629	49	3	TNT_Object_CSm	TNT_Object_CSm	0	1000	0	0	0	0	5000	2	Object6.jpg	-16	0	0	0	0	0	0
18	2023-04-19	15:41:47	16:16:21	16:16:21:129	50	1	TNT_Object_CSp	fixation	0	5	500	0	0	1	495	1	+	-9	0	0	0	0	0	0
18	2023-04-19	15:41:47	16:16:22	16:16:22:145	50	2	TNT_Object_CSp	Passive	0	5	0	0	0	0	1000	1	VIEW	-16	0	0	0	0	0	0
18	2023-04-19	15:41:47	16:16:27	16:16:27:162	50	3	TNT_Object_CSp	TNT_Object_CSp	0	500	0	0	0	0	5000	4	Object5.jpg	-16	0	0	0	0	0	0
18	2023-04-19	15:41:47	16:16:29	16:16:29:162	51	1	TNT_Think_CSm	fixation	0	5	1500	0	0	1	1495	1	+	-9	0	0	0	0	0	0
18	2023-04-19	15:41:47	16:16:30	16:16:30:180	51	2	TNT_Think_CSm	Think	0	5	0	0	0	0	1000	1	THINK	-16	0	0	0	0	0	0
18	2023-04-19	15:41:47	16:16:35	16:16:35:196	51	3	TNT_Think_CSm	TNT_Think_CSm	0	5	0	0	0	0	5000	1	Cue16.jpg	-16	0	0	0	0	0	0
18	2023-04-19	15:41:47	16:16:36	16:16:36:044	51	4	TNT_Think_CSm	Intrusion	0	1500	3000	0	4	1	830	1	How <b>often</b> did you <b>think</b> about the <b>scene</b>?   <center><br><b>NEVER (1)    BRIEFLY (2)   OFTEN (3) </b>	-16	0	0	0	0	0	0
18	2023-04-19	15:41:47	16:16:39	16:16:39:201	52	1	TNT_NoThink_CSm	fixation	0	5	1000	0	0	1	995	1	+	-16	0	0	0	0	0	0
18	2023-04-19	15:41:47	16:16:40	16:16:40:214	52	2	TNT_NoThink_CSm	NoThink	0	5	0	0	0	0	1000	1	DON'T THINK	-16	0	0	0	0	0	0
18	2023-04-19	15:41:47	16:16:45	16:16:45:230	52	3	TNT_NoThink_CSm	TNT_NoThink_CSm	0	5	0	0	0	0	5000	1	Cue20.jpg	-16	0	0	0	0	0	0
18	2023-04-19	15:41:47	16:16:46	16:16:46:868	52	4	TNT_NoThink_CSm	Intrusion	0	500	3000	0	2	1	620	1	How <b>often</b> did you <b>think</b> about the <b>scene</b>?   <center><br><b>NEVER (1)    BRIEFLY (2)   OFTEN (3) </b>	-16	0	0	0	0	0	0
18	2023-04-19	15:41:47	16:16:49	16:16:49:235	53	1	TNT_Object_CSm	fixation	0	5	1000	0	0	1	995	1	+	-16	0	0	0	0	0	0
18	2023-04-19	15:41:47	16:16:50	16:16:50:247	53	2	TNT_Object_CSm	Passive	0	5	0	0	0	0	1000	1	VIEW	-16	0	0	0	0	0	0
18	2023-04-19	15:41:47	16:16:55	16:16:55:264	53	3	TNT_Object_CSm	TNT_Object_CSm	0	500	0	0	0	0	5000	4	Object2.jpg	-16	0	0	0	0	0	0
18	2023-04-19	15:41:47	16:16:57	16:16:57:264	54	1	TNT_Think_CSp	fixation	0	5	1500	0	0	1	1495	1	+	-9	0	0	0	0	0	0
18	2023-04-19	15:41:47	16:16:58	16:16:58:281	54	2	TNT_Think_CSp	Think	0	5	0	0	0	0	1000	1	THINK	-16	0	0	0	0	0	0
18	2023-04-19	15:41:47	16:17:03	16:17:03:298	54	3	TNT_Think_CSp	TNT_Think_CSp	0	5	0	0	0	0	5000	3	Cue25.jpg	-16	0	0	0	0	0	0
18	2023-04-19	15:41:47	16:17:04	16:17:04:332	54	4	TNT_Think_CSp	Intrusion	0	1000	3000	0	4	1	1017	1	How <b>often</b> did you <b>think</b> about the <b>scene</b>?   <center><br><b>NEVER (1)    BRIEFLY (2)   OFTEN (3) </b>	-16	0	0	0	0	0	0
18	2023-04-19	15:41:47	16:17:07	16:17:07:802	55	1	TNT_Think_CSm	fixation	0	5	500	0	0	1	495	1	+	-1	0	0	0	0	0	0
18	2023-04-19	15:41:47	16:17:08	16:17:08:815	55	2	TNT_Think_CSm	Think	0	5	0	0	0	0	1000	1	THINK	-16	0	0	0	0	0	0
18	2023-04-19	15:41:47	16:17:13	16:17:13:832	55	3	TNT_Think_CSm	TNT_Think_CSm	0	5	0	0	0	0	5000	5	Cue27.jpg	-16	0	0	0	0	0	0
18	2023-04-19	15:41:47	16:17:13	16:17:13:276	55	4	TNT_Think_CSm	Intrusion	0	1500	3000	0	4	1	427	1	How <b>often</b> did you <b>think</b> about the <b>scene</b>?   <center><br><b>NEVER (1)    BRIEFLY (2)   OFTEN (3) </b>	-16	0	0	0	0	0	0
18	2023-04-19	15:41:47	16:17:17	16:17:17:335	56	1	TNT_NoThink_CSp	fixation	0	5	1500	0	0	1	1495	1	+	-8	0	0	0	0	0	0
18	2023-04-19	15:41:47	16:17:18	16:17:18:349	56	2	TNT_NoThink_CSp	NoThink	0	5	0	0	0	0	1000	1	DON'T THINK	-16	0	0	0	0	0	0
18	2023-04-19	15:41:47	16:17:23	16:17:23:366	56	3	TNT_NoThink_CSp	TNT_NoThink_CSp	0	5	0	0	0	0	5000	2	Cue33.jpg	-16	0	0	0	0	0	0
18	2023-04-19	15:41:47	16:17:25	16:17:25:956	56	4	TNT_NoThink_CSp	Intrusion	0	500	3000	0	2	1	1573	1	How <b>often</b> did you <b>think</b> about the <b>scene</b>?   <center><br><b>NEVER (1)    BRIEFLY (2)   OFTEN (3) </b>	-16	0	0	0	0	0	0
18	2023-04-19	15:41:47	16:17:27	16:17:27:869	57	1	TNT_NoThink_CSm	fixation	0	5	500	0	0	1	495	1	+	-8	0	0	0	0	0	0
18	2023-04-19	15:41:47	16:17:28	16:17:28:883	57	2	TNT_NoThink_CSm	NoThink	0	5	0	0	0	0	1000	1	DON'T THINK	-16	0	0	0	0	0	0
18	2023-04-19	15:41:47	16:17:33	16:17:33:900	57	3	TNT_NoThink_CSm	TNT_NoThink_CSm	0	5	0	0	0	0	5000	5	Cue36.jpg	-16	0	0	0	0	0	0
18	2023-04-19	15:41:47	16:17:34	16:17:34:804	57	4	TNT_NoThink_CSm	Intrusion	0	1000	3000	0	2	1	887	1	How <b>often</b> did you <b>think</b> about the <b>scene</b>?   <center><br><b>NEVER (1)    BRIEFLY (2)   OFTEN (3) </b>	-16	0	0	0	0	0	0
18	2023-04-19	15:41:47	16:17:37	16:17:37:904	58	1	TNT_Object_CSm	fixation	0	5	1000	0	0	1	995	1	+	-9	0	0	0	0	0	0
18	2023-04-19	15:41:47	16:17:38	16:17:38:917	58	2	TNT_Object_CSm	Passive	0	5	0	0	0	0	1000	1	VIEW	-16	0	0	0	0	0	0
18	2023-04-19	15:41:47	16:17:43	16:17:43:934	58	3	TNT_Object_CSm	TNT_Object_CSm	0	1000	0	0	0	0	5000	3	Object4.jpg	-16	0	0	0	0	0	0
18	2023-04-19	15:41:47	16:17:45	16:17:45:933	59	1	TNT_Object_CSp	fixation	0	5	1000	0	0	1	995	1	+	-9	0	0	0	0	0	0
18	2023-04-19	15:41:47	16:17:46	16:17:46:950	59	2	TNT_Object_CSp	Passive	0	5	0	0	0	0	1000	1	VIEW	-16	0	0	0	0	0	0
18	2023-04-19	15:41:47	16:17:51	16:17:51:968	59	3	TNT_Object_CSp	TNT_Object_CSp	0	1500	0	0	0	0	5000	1	Object7.jpg	-16	0	0	0	0	0	0
18	2023-04-19	15:41:47	16:17:54	16:17:54:967	60	1	TNT_Think_CSm	fixation	0	5	1500	0	0	1	1495	1	+	-8	0	0	0	0	0	0
18	2023-04-19	15:41:47	16:17:55	16:17:55:985	60	2	TNT_Think_CSm	Think	0	5	0	0	0	0	1000	1	THINK	-16	0	0	0	0	0	0
18	2023-04-19	15:41:47	16:18:00	16:18:00:01	60	3	TNT_Think_CSm	TNT_Think_CSm	0	5	0	0	0	0	5000	3	Cue21.jpg	-16	0	0	0	0	0	0
18	2023-04-19	15:41:47	16:18:01	16:18:01:452	60	4	TNT_Think_CSm	Intrusion	0	1500	3000	0	4	1	1433	1	How <b>often</b> did you <b>think</b> about the <b>scene</b>?   <center><br><b>NEVER (1)    BRIEFLY (2)   OFTEN (3) </b>	-16	0	0	0	0	0	0
18	2023-04-19	15:41:47	16:18:03	16:18:03:505	61	1	TNT_NoThink_CSm	fixation	0	5	500	0	0	1	495	1	+	-8	0	0	0	0	0	0
18	2023-04-19	15:41:47	16:18:04	16:18:04:519	61	2	TNT_NoThink_CSm	NoThink	0	5	0	0	0	0	1000	1	DON'T THINK	-16	0	0	0	0	0	0
18	2023-04-19	15:41:47	16:18:09	16:18:09:535	61	3	TNT_NoThink_CSm	TNT_NoThink_CSm	0	5	0	0	0	0	5000	3	Cue17.jpg	-16	0	0	0	0	0	0
18	2023-04-19	15:41:47	16:18:10	16:18:10:012	61	4	TNT_NoThink_CSm	Intrusion	0	1000	3000	0	3	1	459	1	How <b>often</b> did you <b>think</b> about the <b>scene</b>?   <center><br><b>NEVER (1)    BRIEFLY (2)   OFTEN (3) </b>	-16	0	0	0	0	0	0
18	2023-04-19	15:41:47	16:18:13	16:18:13:039	62	1	TNT_Think_CSp	fixation	0	5	500	0	0	1	495	1	+	-8	0	0	0	0	0	0
18	2023-04-19	15:41:47	16:18:14	16:18:14:052	62	2	TNT_Think_CSp	Think	0	5	0	0	0	0	1000	1	THINK	-16	0	0	0	0	0	0
18	2023-04-19	15:41:47	16:18:19	16:18:19:069	62	3	TNT_Think_CSp	TNT_Think_CSp	0	5	0	0	0	0	5000	2	Cue13.jpg	-16	0	0	0	0	0	0
18	2023-04-19	15:41:47	16:18:20	16:18:20:524	62	4	TNT_Think_CSp	Intrusion	0	500	3000	0	4	1	1437	1	How <b>often</b> did you <b>think</b> about the <b>scene</b>?   <center><br><b>NEVER (1)    BRIEFLY (2)   OFTEN (3) </b>	-16	0	0	0	0	0	0
18	2023-04-19	15:41:47	16:18:23	16:18:23:573	63	1	TNT_NoThink_CSm	fixation	0	5	1500	0	0	1	1495	1	+	-8	0	0	0	0	0	0
18	2023-04-19	15:41:47	16:18:24	16:18:24:587	63	2	TNT_NoThink_CSm	NoThink	0	5	0	0	0	0	1000	1	DON'T THINK	-16	0	0	0	0	0	0
18	2023-04-19	15:41:47	16:18:29	16:18:29:603	63	3	TNT_NoThink_CSm	TNT_NoThink_CSm	0	5	0	0	0	0	5000	6	Cue1.jpg	-16	0	0	0	0	0	0
18	2023-04-19	15:41:47	16:18:30	16:18:30:948	63	4	TNT_NoThink_CSm	Intrusion	0	1500	3000	0	2	1	327	1	How <b>often</b> did you <b>think</b> about the <b>scene</b>?   <center><br><b>NEVER (1)    BRIEFLY (2)   OFTEN (3) </b>	-16	0	0	0	0	0	0
18	2023-04-19	15:41:47	16:18:33	16:18:33:607	64	1	TNT_Think_CSp	fixation	0	5	1000	0	0	1	995	1	+	-8	0	0	0	0	0	0
18	2023-04-19	15:41:47	16:18:34	16:18:34:620	64	2	TNT_Think_CSp	Think	0	5	0	0	0	0	1000	1	THINK	-16	0	0	0	0	0	0
18	2023-04-19	15:41:47	16:18:40	16:18:40:637	64	3	TNT_Think_CSp	TNT_Think_CSp	0	5	0	0	0	0	5000	6	Cue29.jpg	-16	0	0	0	0	0	0
18	2023-04-19	15:41:47	16:18:41	16:18:41:468	64	4	TNT_Think_CSp	Intrusion	0	500	3000	0	4	1	1813	1	How <b>often</b> did you <b>think</b> about the <b>scene</b>?   <center><br><b>NEVER (1)    BRIEFLY (2)   OFTEN (3) </b>	-16	0	0	0	0	0	0
18	2023-04-19	15:41:47	16:18:44	16:18:44:641	65	1	TNT_Think_CSp	fixation	0	5	1000	0	0	1	995	1	+	-9	0	0	0	0	0	0
18	2023-04-19	15:41:47	16:18:45	16:18:45:654	65	2	TNT_Think_CSp	Think	0	5	0	0	0	0	1000	1	THINK	-16	0	0	0	0	0	0
18	2023-04-19	15:41:47	16:18:50	16:18:50:671	65	3	TNT_Think_CSp	TNT_Think_CSp	0	5	0	0	0	0	5000	5	Cue4.jpg	-16	0	0	0	0	0	0
18	2023-04-19	15:41:47	16:18:50	16:18:50:332	65	4	TNT_Think_CSp	Intrusion	0	1000	3000	0	4	1	643	1	How <b>often</b> did you <b>think</b> about the <b>scene</b>?   <center><br><b>NEVER (1)    BRIEFLY (2)   OFTEN (3) </b>	-16	0	0	0	0	0	0
18	2023-04-19	15:41:47	16:18:53	16:18:53:175	66	1	Expectancy_rating	fixation	0	5	500	0	0	1	495	1	+	-8	0	0	0	0	0	0
18	2023-04-19	15:41:47	16:19:02	16:19:02:253	66	2	Expectancy_rating	expectancy_rating	0	500	0	0	0	0	9056	1	When you saw the <b>object</b>,   to what <b>degree (0-100%)</b> did you expect the <b>unpleasant sound to occur</b>?	-16	46	Object6.jpg	-16	0	0	0
18	2023-04-19	15:41:47	16:19:04	16:19:04:256	67	1	Expectancy_rating	fixation	0	5	1500	0	0	1	1495	1	+	-9	0	0	0	0	0	0
18	2023-04-19	15:41:47	16:19:13	16:19:13:554	67	2	Expectancy_rating	expectancy_rating	0	1500	0	0	24	0	9268	1	When you saw the <b>object</b>,   to what <b>degree (0-100%)</b> did you expect the <b>unpleasant sound to occur</b>?	-16	15	Cue15.jpg	-16	0	0	0
18	2023-04-19	15:41:47	16:19:15	16:19:15:557	68	1	Expectancy_rating	fixation	0	5	500	0	0	1	495	1	+	-8	0	0	0	0	0	0
18	2023-04-19	15:41:47	16:19:18	16:19:18:904	68	2	Expectancy_rating	expectancy_rating	0	1000	0	0	100	0	2327	1	When you saw the <b>object</b>,   to what <b>degree (0-100%)</b> did you expect the <b>unpleasant sound to occur</b>?	-16	31	Cue31.jpg	-16	0	0	0
18	2023-04-19	15:41:47	16:19:20	16:19:20:403	69	1	Expectancy_rating	fixation	0	5	1500	0	0	1	1495	1	+	-15	0	0	0	0	0	0
18	2023-04-19	15:41:47	16:19:23	16:19:23:604	69	2	Expectancy_rating	expectancy_rating	0	1000	0	0	15	0	3149	1	When you saw the <b>object</b>,   to what <b>degree (0-100%)</b> did you expect the <b>unpleasant sound to occur</b>?	-11	16	Cue16.jpg	-11	0	0	0
18	2023-04-19	15:41:47	16:19:25	16:19:25:589	70	1	Expectancy_rating	fixation	0	5	1000	0	0	1	995	1	+	-10	0	0	0	0	0	0
18	2023-04-19	15:41:47	16:19:30	16:19:30:455	70	2	Expectancy_rating	expectancy_rating	0	1500	0	0	80	0	4837	1	When you saw the <b>object</b>,   to what <b>degree (0-100%)</b> did you expect the <b>unpleasant sound to occur</b>?	-16	33	Cue33.jpg	-16	0	0	0
18	2023-04-19	15:41:47	16:19:33	16:19:33:454	71	1	Expectancy_rating	fixation	0	5	1500	0	0	1	1495	1	+	-15	0	0	0	0	0	0
18	2023-04-19	15:41:47	16:19:37	16:19:37:655	71	2	Expectancy_rating	expectancy_rating	0	500	0	0	98	0	3170	1	When you saw the <b>object</b>,   to what <b>degree (0-100%)</b> did you expect the <b>unpleasant sound to occur</b>?	-16	26	Cue26.jpg	-16	0	0	0
18	2023-04-19	15:41:47	16:19:38	16:19:38:154	72	1	Expectancy_rating	fixation	0	5	1000	0	0	1	995	1	+	-15	0	0	0	0	0	0
18	2023-04-19	15:41:47	16:19:41	16:19:41:223	72	2	Expectancy_rating	expectancy_rating	0	1000	0	0	0	0	3038	1	When you saw the <b>object</b>,   to what <b>degree (0-100%)</b> did you expect the <b>unpleasant sound to occur</b>?	-12	20	Cue20.jpg	-12	0	0	0
18	2023-04-19	15:41:47	16:19:43	16:19:43:722	73	1	Expectancy_rating	fixation	0	5	500	0	0	1	495	1	+	-15	0	0	0	0	0	0
18	2023-04-19	15:41:47	16:19:45	16:19:45:489	73	2	Expectancy_rating	expectancy_rating	0	1500	0	0	37	0	2735	1	When you saw the <b>object</b>,   to what <b>degree (0-100%)</b> did you expect the <b>unpleasant sound to occur</b>?	-10	41	Object1.jpg	-10	0	0	0
18	2023-04-19	15:41:47	16:19:48	16:19:48:488	74	1	Expectancy_rating	fixation	0	5	1500	0	0	1	1495	1	+	-15	0	0	0	0	0	0
18	2023-04-19	15:41:47	16:19:51	16:19:51:590	74	2	Expectancy_rating	expectancy_rating	0	500	0	0	19	0	3072	1	When you saw the <b>object</b>,   to what <b>degree (0-100%)</b> did you expect the <b>unpleasant sound to occur</b>?	-12	17	Cue17.jpg	-12	0	0	0
18	2023-04-19	15:41:47	16:19:53	16:19:53:089	75	1	Expectancy_rating	fixation	0	5	1000	0	0	1	995	1	+	-15	0	0	0	0	0	0
18	2023-04-19	15:41:47	16:19:57	16:19:57:323	75	2	Expectancy_rating	expectancy_rating	0	1500	0	0	63	0	4216	1	When you saw the <b>object</b>,   to what <b>degree (0-100%)</b> did you expect the <b>unpleasant sound to occur</b>?	-16	47	Object7.jpg	-16	0	0	0
18	2023-04-19	15:41:47	16:19:59	16:19:59:322	76	1	Expectancy_rating	fixation	0	5	500	0	0	1	495	1	+	-15	0	0	0	0	0	0
18	2023-04-19	15:41:47	16:20:02	16:20:02:057	76	2	Expectancy_rating	expectancy_rating	0	500	0	0	26	0	2702	1	When you saw the <b>object</b>,   to what <b>degree (0-100%)</b> did you expect the <b>unpleasant sound to occur</b>?	-10	28	Cue28.jpg	-10	0	0	0
18	2023-04-19	15:41:47	16:20:03	16:20:03:056	77	1	Expectancy_rating	fixation	0	5	500	0	0	1	495	1	+	-15	0	0	0	0	0	0
18	2023-04-19	15:41:47	16:20:06	16:20:06:974	77	2	Expectancy_rating	expectancy_rating	0	1000	0	0	63	0	2896	1	When you saw the <b>object</b>,   to what <b>degree (0-100%)</b> did you expect the <b>unpleasant sound to occur</b>?	-12	4	Cue4.jpg	-12	0	0	0
18	2023-04-19	15:41:47	16:20:08	16:20:08:973	78	1	Expectancy_rating	fixation	0	5	1000	0	0	1	995	1	+	-14	0	0	0	0	0	0
18	2023-04-19	15:41:47	16:20:11	16:20:11:841	78	2	Expectancy_rating	expectancy_rating	0	500	0	0	15	0	2835	1	When you saw the <b>object</b>,   to what <b>degree (0-100%)</b> did you expect the <b>unpleasant sound to occur</b>?	-12	18	Cue18.jpg	-12	0	0	0
18	2023-04-19	15:41:47	16:20:13	16:20:13:840	79	1	Expectancy_rating	fixation	0	5	1500	0	0	1	1495	1	+	-14	0	0	0	0	0	0
18	2023-04-19	15:41:47	16:20:15	16:20:15:325	79	2	Expectancy_rating	expectancy_rating	0	1000	0	0	10	0	2456	1	When you saw the <b>object</b>,   to what <b>degree (0-100%)</b> did you expect the <b>unpleasant sound to occur</b>?	-12	21	Cue21.jpg	-12	0	0	0
18	2023-04-19	15:41:47	16:20:18	16:20:18:825	80	1	Expectancy_rating	fixation	0	5	1500	0	0	1	1495	1	+	-13	0	0	0	0	0	0
18	2023-04-19	15:41:47	16:20:22	16:20:22:258	80	2	Expectancy_rating	expectancy_rating	0	1500	0	0	93	0	4409	1	When you saw the <b>object</b>,   to what <b>degree (0-100%)</b> did you expect the <b>unpleasant sound to occur</b>?	-16	19	Cue19.jpg	-16	0	0	0
18	2023-04-19	15:41:47	16:20:25	16:20:25:757	81	1	Expectancy_rating	fixation	0	5	1000	0	0	1	995	1	+	-15	0	0	0	0	0	0
18	2023-04-19	15:41:47	16:20:27	16:20:27:325	81	2	Expectancy_rating	expectancy_rating	0	1000	0	0	29	0	2547	1	When you saw the <b>object</b>,   to what <b>degree (0-100%)</b> did you expect the <b>unpleasant sound to occur</b>?	-12	37	Cue37.jpg	-12	0	0	0
18	2023-04-19	15:41:47	16:20:29	16:20:29:824	82	1	Expectancy_rating	fixation	0	5	500	0	0	1	495	1	+	-15	0	0	0	0	0	0
18	2023-04-19	15:41:47	16:20:33	16:20:33:442	82	2	Expectancy_rating	expectancy_rating	0	500	0	0	22	0	4584	1	When you saw the <b>object</b>,   to what <b>degree (0-100%)</b> did you expect the <b>unpleasant sound to occur</b>?	-9	24	Cue24.jpg	-9	0	0	0
18	2023-04-19	15:41:47	16:20:35	16:20:35:940	83	1	Expectancy_rating	fixation	0	5	1000	0	0	1	995	1	+	-15	0	0	0	0	0	0
18	2023-04-19	15:41:47	16:20:37	16:20:37:559	83	2	Expectancy_rating	expectancy_rating	0	1500	0	0	25	0	2595	1	When you saw the <b>object</b>,   to what <b>degree (0-100%)</b> did you expect the <b>unpleasant sound to occur</b>?	-10	9	Cue9.jpg	-10	0	0	0
18	2023-04-19	15:41:47	16:20:40	16:20:40:557	84	1	Expectancy_rating	fixation	0	5	1500	0	0	1	1495	1	+	-15	0	0	0	0	0	0
18	2023-04-19	15:41:47	16:20:43	16:20:43:810	84	2	Expectancy_rating	expectancy_rating	0	500	0	0	100	0	2218	1	When you saw the <b>object</b>,   to what <b>degree (0-100%)</b> did you expect the <b>unpleasant sound to occur</b>?	-12	32	Cue32.jpg	-12	0	0	0
18	2023-04-19	15:41:47	16:20:44	16:20:44:808	85	1	Expectancy_rating	fixation	0	5	500	0	0	1	495	1	+	-15	0	0	0	0	0	0
18	2023-04-19	15:41:47	16:20:46	16:20:46:076	85	2	Expectancy_rating	expectancy_rating	0	1000	0	0	30	0	2216	1	When you saw the <b>object</b>,   to what <b>degree (0-100%)</b> did you expect the <b>unpleasant sound to occur</b>?	-12	11	Cue11.jpg	-12	0	0	0
18	2023-04-19	15:41:47	16:20:48	16:20:48:558	86	1	Expectancy_rating	fixation	0	5	1500	0	0	1	1495	1	+	-15	0	0	0	0	0	0
18	2023-04-19	15:41:47	16:20:50	16:20:50:510	86	2	Expectancy_rating	expectancy_rating	0	1500	0	0	73	0	1922	1	When you saw the <b>object</b>,   to what <b>degree (0-100%)</b> did you expect the <b>unpleasant sound to occur</b>?	-11	29	Cue29.jpg	-11	0	0	0
18	2023-04-19	15:41:47	16:20:53	16:20:53:09	87	1	Expectancy_rating	fixation	0	5	1000	0	0	1	995	1	+	-15	0	0	0	0	0	0
18	2023-04-19	15:41:47	16:20:57	16:20:57:577	87	2	Expectancy_rating	expectancy_rating	0	500	0	0	28	0	4543	1	When you saw the <b>object</b>,   to what <b>degree (0-100%)</b> did you expect the <b>unpleasant sound to occur</b>?	-9	38	Cue38.jpg	-9	0	0	0
18	2023-04-19	15:41:47	16:20:58	16:20:58:576	88	1	Expectancy_rating	fixation	0	5	500	0	0	1	495	1	+	-14	0	0	0	0	0	0
18	2023-04-19	15:41:47	16:21:01	16:21:01:727	88	2	Expectancy_rating	expectancy_rating	0	1000	0	0	100	0	2128	1	When you saw the <b>object</b>,   to what <b>degree (0-100%)</b> did you expect the <b>unpleasant sound to occur</b>?	-16	39	Cue39.jpg	-16	0	0	0
18	2023-04-19	15:41:47	16:21:03	16:21:03:725	89	1	Expectancy_rating	fixation	0	5	1000	0	0	1	995	1	+	-15	0	0	0	0	0	0
18	2023-04-19	15:41:47	16:21:06	16:21:06:978	89	2	Expectancy_rating	expectancy_rating	0	1500	0	0	50	0	3226	1	When you saw the <b>object</b>,   to what <b>degree (0-100%)</b> did you expect the <b>unpleasant sound to occur</b>?	-11	22	Cue22.jpg	-11	0	0	0
18	2023-04-19	15:41:47	16:21:09	16:21:09:979	90	1	Expectancy_rating	fixation	0	5	1500	0	0	1	1495	1	+	-13	0	0	0	0	0	0
18	2023-04-19	15:41:47	16:21:11	16:21:11:427	90	2	Expectancy_rating	expectancy_rating	0	1000	0	0	24	0	2432	1	When you saw the <b>object</b>,   to what <b>degree (0-100%)</b> did you expect the <b>unpleasant sound to occur</b>?	-16	1	Cue1.jpg	-16	0	0	0
18	2023-04-19	15:41:47	16:21:13	16:21:13:926	91	1	Expectancy_rating	fixation	0	5	500	0	0	1	495	1	+	-15	0	0	0	0	0	0
18	2023-04-19	15:41:47	16:21:15	16:21:15:061	91	2	Expectancy_rating	expectancy_rating	0	500	0	0	69	0	2106	1	When you saw the <b>object</b>,   to what <b>degree (0-100%)</b> did you expect the <b>unpleasant sound to occur</b>?	-10	3	Cue3.jpg	-10	0	0	0
18	2023-04-19	15:41:47	16:21:16	16:21:16:059	92	1	Expectancy_rating	fixation	0	5	500	0	0	1	495	1	+	-15	0	0	0	0	0	0
18	2023-04-19	15:41:47	16:21:19	16:21:19:228	92	2	Expectancy_rating	expectancy_rating	0	1500	0	0	27	0	3140	1	When you saw the <b>object</b>,   to what <b>degree (0-100%)</b> did you expect the <b>unpleasant sound to occur</b>?	-12	27	Cue27.jpg	-12	0	0	0
18	2023-04-19	15:41:47	16:21:22	16:21:22:727	93	1	Expectancy_rating	fixation	0	5	1000	0	0	1	995	1	+	-15	0	0	0	0	0	0
18	2023-04-19	15:41:47	16:21:24	16:21:24:845	93	2	Expectancy_rating	expectancy_rating	0	500	0	0	26	0	2089	1	When you saw the <b>object</b>,   to what <b>degree (0-100%)</b> did you expect the <b>unpleasant sound to occur</b>?	-16	35	Cue35.jpg	-16	0	0	0
18	2023-04-19	15:41:47	16:21:26	16:21:26:844	94	1	Expectancy_rating	fixation	0	5	1500	0	0	1	1495	1	+	-15	0	0	0	0	0	0
18	2023-04-19	15:41:47	16:21:28	16:21:28:978	94	2	Expectancy_rating	expectancy_rating	0	1000	0	0	18	0	2084	1	When you saw the <b>object</b>,   to what <b>degree (0-100%)</b> did you expect the <b>unpleasant sound to occur</b>?	-12	5	Cue5.jpg	-12	0	0	0
18	2023-04-19	15:41:47	16:21:30	16:21:30:461	95	1	Expectancy_rating	fixation	0	5	1500	0	0	1	1495	1	+	-15	0	0	0	0	0	0
18	2023-04-19	15:41:47	16:21:32	16:21:32:613	95	2	Expectancy_rating	expectancy_rating	0	1500	0	0	28	0	2131	1	When you saw the <b>object</b>,   to what <b>degree (0-100%)</b> did you expect the <b>unpleasant sound to occur</b>?	-11	34	Cue34.jpg	-11	0	0	0
18	2023-04-19	15:41:47	16:21:34	16:21:34:611	96	1	Expectancy_rating	fixation	0	5	500	0	0	1	495	1	+	-15	0	0	0	0	0	0
18	2023-04-19	15:41:47	16:21:38	16:21:38:663	96	2	Expectancy_rating	expectancy_rating	0	500	0	0	41	0	3029	1	When you saw the <b>object</b>,   to what <b>degree (0-100%)</b> did you expect the <b>unpleasant sound to occur</b>?	-11	12	Cue12.jpg	-11	0	0	0
18	2023-04-19	15:41:47	16:21:39	16:21:39:162	97	1	Expectancy_rating	fixation	0	5	1000	0	0	1	995	1	+	-14	0	0	0	0	0	0
18	2023-04-19	15:41:47	16:21:43	16:21:43:862	97	2	Expectancy_rating	expectancy_rating	0	1500	0	0	45	0	3671	1	When you saw the <b>object</b>,   to what <b>degree (0-100%)</b> did you expect the <b>unpleasant sound to occur</b>?	-12	30	Cue30.jpg	-12	0	0	0
18	2023-04-19	15:41:47	16:21:46	16:21:46:861	98	1	Expectancy_rating	fixation	0	5	1500	0	0	1	1495	1	+	-15	0	0	0	0	0	0
18	2023-04-19	15:41:47	16:21:48	16:21:48:013	98	2	Expectancy_rating	expectancy_rating	0	1000	0	0	87	0	2122	1	When you saw the <b>object</b>,   to what <b>degree (0-100%)</b> did you expect the <b>unpleasant sound to occur</b>?	-12	8	Cue8.jpg	-12	0	0	0
18	2023-04-19	15:41:47	16:21:50	16:21:50:012	99	1	Expectancy_rating	fixation	0	5	1000	0	0	1	995	1	+	-15	0	0	0	0	0	0
18	2023-04-19	15:41:47	16:21:52	16:21:52:430	99	2	Expectancy_rating	expectancy_rating	0	1000	0	0	98	0	2388	1	When you saw the <b>object</b>,   to what <b>degree (0-100%)</b> did you expect the <b>unpleasant sound to occur</b>?	-12	7	Cue7.jpg	-12	0	0	0
18	2023-04-19	15:41:47	16:21:54	16:21:54:929	100	1	Expectancy_rating	fixation	0	5	500	0	0	1	495	1	+	-14	0	0	0	0	0	0
18	2023-04-19	15:41:47	16:21:56	16:21:56:013	100	2	Expectancy_rating	expectancy_rating	0	1500	0	0	56	0	2063	1	When you saw the <b>object</b>,   to what <b>degree (0-100%)</b> did you expect the <b>unpleasant sound to occur</b>?	-12	45	Object5.jpg	-12	0	0	0
18	2023-04-19	15:41:47	16:21:58	16:21:58:512	101	1	Expectancy_rating	fixation	0	5	1000	0	0	1	995	1	+	-13	0	0	0	0	0	0
18	2023-04-19	15:41:47	16:22:01	16:22:01:064	101	2	Expectancy_rating	expectancy_rating	0	500	0	0	12	0	2495	1	When you saw the <b>object</b>,   to what <b>degree (0-100%)</b> did you expect the <b>unpleasant sound to occur</b>?	-11	23	Cue23.jpg	-11	0	0	0
18	2023-04-19	15:41:47	16:22:02	16:22:02:047	102	1	Expectancy_rating	fixation	0	5	500	0	0	1	495	1	+	-9	0	0	0	0	0	0
18	2023-04-19	15:41:47	16:22:05	16:22:05:848	102	2	Expectancy_rating	expectancy_rating	0	500	0	0	29	0	2770	1	When you saw the <b>object</b>,   to what <b>degree (0-100%)</b> did you expect the <b>unpleasant sound to occur</b>?	-16	36	Cue36.jpg	-16	0	0	0
18	2023-04-19	15:41:47	16:22:07	16:22:07:850	103	1	Expectancy_rating	fixation	0	5	1500	0	0	1	1495	1	+	-9	0	0	0	0	0	0
18	2023-04-19	15:41:47	16:22:10	16:22:10:698	103	2	Expectancy_rating	expectancy_rating	0	1000	0	0	73	0	2826	1	When you saw the <b>object</b>,   to what <b>degree (0-100%)</b> did you expect the <b>unpleasant sound to occur</b>?	-16	13	Cue13.jpg	-16	0	0	0
18	2023-04-19	15:41:47	16:22:11	16:22:11:200	104	1	Expectancy_rating	fixation	0	5	500	0	0	1	495	1	+	-8	0	0	0	0	0	0
18	2023-04-19	15:41:47	16:22:15	16:22:15:814	104	2	Expectancy_rating	expectancy_rating	0	1500	0	0	10	0	3587	1	When you saw the <b>object</b>,   to what <b>degree (0-100%)</b> did you expect the <b>unpleasant sound to occur</b>?	-16	42	Object2.jpg	-16	0	0	0
18	2023-04-19	15:41:47	16:22:18	16:22:18:817	105	1	Expectancy_rating	fixation	0	5	1500	0	0	1	1495	1	+	-9	0	0	0	0	0	0
18	2023-04-19	15:41:47	16:22:20	16:22:20:665	105	2	Expectancy_rating	expectancy_rating	0	1000	0	0	92	0	1794	1	When you saw the <b>object</b>,   to what <b>degree (0-100%)</b> did you expect the <b>unpleasant sound to occur</b>?	-16	48	Object8.jpg	-16	0	0	0
18	2023-04-19	15:41:47	16:22:22	16:22:22:650	106	1	Expectancy_rating	fixation	0	5	1000	0	0	1	995	1	+	-8	0	0	0	0	0	0
18	2023-04-19	15:41:47	16:22:25	16:22:25:166	106	2	Expectancy_rating	expectancy_rating	0	500	0	0	11	0	3489	1	When you saw the <b>object</b>,   to what <b>degree (0-100%)</b> did you expect the <b>unpleasant sound to occur</b>?	-16	14	Cue14.jpg	-16	0	0	0
18	2023-04-19	15:41:47	16:22:26	16:22:26:167	107	1	Expectancy_rating	fixation	0	5	500	0	0	1	495	1	+	-1	0	0	0	0	0	0
18	2023-04-19	15:41:47	16:22:28	16:22:28:199	107	2	Expectancy_rating	expectancy_rating	0	1500	0	0	34	0	2004	1	When you saw the <b>object</b>,   to what <b>degree (0-100%)</b> did you expect the <b>unpleasant sound to occur</b>?	-16	10	Cue10.jpg	-16	0	0	0
18	2023-04-19	15:41:47	16:22:31	16:22:31:202	108	1	Expectancy_rating	fixation	0	5	1500	0	0	1	1495	1	+	-9	0	0	0	0	0	0
18	2023-04-19	15:41:47	16:22:33	16:22:33:366	108	2	Expectancy_rating	expectancy_rating	0	1000	0	0	50	0	2114	1	When you saw the <b>object</b>,   to what <b>degree (0-100%)</b> did you expect the <b>unpleasant sound to occur</b>?	-16	44	Object4.jpg	-16	0	0	0
18	2023-04-19	15:41:47	16:22:35	16:22:35:351	109	1	Expectancy_rating	fixation	0	5	1000	0	0	1	995	1	+	-7	0	0	0	0	0	0
18	2023-04-19	15:41:47	16:22:37	16:22:37:533	109	2	Expectancy_rating	expectancy_rating	0	1500	0	0	37	0	2164	1	When you saw the <b>object</b>,   to what <b>degree (0-100%)</b> did you expect the <b>unpleasant sound to occur</b>?	-16	6	Cue6.jpg	-16	0	0	0
18	2023-04-19	15:41:47	16:22:40	16:22:40:032	110	1	Expectancy_rating	fixation	0	5	1000	0	0	1	995	1	+	-14	0	0	0	0	0	0
18	2023-04-19	15:41:47	16:22:42	16:22:42:400	110	2	Expectancy_rating	expectancy_rating	0	500	0	0	83	0	2344	1	When you saw the <b>object</b>,   to what <b>degree (0-100%)</b> did you expect the <b>unpleasant sound to occur</b>?	-16	43	Object3.jpg	-16	0	0	0
18	2023-04-19	15:41:47	16:22:44	16:22:44:399	111	1	Expectancy_rating	fixation	0	5	1500	0	0	1	1495	1	+	-15	0	0	0	0	0	0
18	2023-04-19	15:41:47	16:22:51	16:22:51:133	111	2	Expectancy_rating	expectancy_rating	0	1000	0	0	38	0	6681	1	When you saw the <b>object</b>,   to what <b>degree (0-100%)</b> did you expect the <b>unpleasant sound to occur</b>?	-12	2	Cue2.jpg	-12	0	0	0
18	2023-04-19	15:41:47	16:22:52	16:22:52:616	112	1	Expectancy_rating	fixation	0	5	500	0	0	1	495	1	+	-13	0	0	0	0	0	0
18	2023-04-19	15:41:47	16:22:55	16:22:55:401	112	2	Expectancy_rating	expectancy_rating	0	500	0	0	55	0	2760	1	When you saw the <b>object</b>,   to what <b>degree (0-100%)</b> did you expect the <b>unpleasant sound to occur</b>?	-11	25	Cue25.jpg	-11	0	0	0
18	2023-04-19	15:41:47	16:22:57	16:22:57:401	113	1	Expectancy_rating	fixation	0	5	1500	0	0	1	1495	1	+	-10	0	0	0	0	0	0
18	2023-04-19	15:41:47	16:23:00	16:23:00:767	113	2	Expectancy_rating	expectancy_rating	0	1500	0	0	73	0	2345	1	When you saw the <b>object</b>,   to what <b>degree (0-100%)</b> did you expect the <b>unpleasant sound to occur</b>?	-16	40	Cue40.jpg	-16	0	0	0
18	2023-04-19	15:41:47	16:23:04	16:23:04:945	114	1	countdown	instructions	0	5	0	0	57	0	2644	1	<center><br><br> <b>WATCH CALLIBRATION</b>.                <br><br><br><br>In a couple of seconds a <b>countdown</b> will start that counts down from 3 to 1,       <br><br>after which the screen will show the instruction <b>PRESS BUTTON</b>.       <br><br><b>As soon as you see that screen</b>, you must shortly press the button on your watch.       <br><br> <br><br> Press SPACE  to continue.	-13	0	0	0	0	0	0
18	2023-04-19	15:41:47	16:23:05	16:23:05:968	114	2	countdown	countdown_3	0	5	0	0	0	0	1000	1	3	-15	0	0	0	0	0	0
18	2023-04-19	15:41:47	16:23:06	16:23:06:984	114	3	countdown	countdown_2	0	5	0	0	0	0	1000	1	2	-16	0	0	0	0	0	0
18	2023-04-19	15:41:47	16:23:07	16:23:07:01	114	4	countdown	countdown_1	0	5	0	0	0	0	1000	1	1	-16	0	0	0	0	0	0
18	2023-04-19	15:41:47	16:23:08	16:23:08:018	114	5	countdown	press_button	0	5	0	0	0	0	1000	1	PRESS BUTTON NOW	-16	0	0	0	0	0	0
18	2023-04-19	15:41:47	16:23:23	16:23:23:051	115	1	continue_TNT	continue_TNT	0	5	0	0	0	0	15000	1	<center> <br><br><br> We will now continue with the next block of the attention task.   <br><br><br><center>Keep your fingers balanced on the <b>1, 2 and 3 </b>on the keyboard throughout the task   <br><br>to give the rating how well you were <b>able to think</b> or <b>not think</b> (1 = NEVER, 2 = BRIEFLY, 3 = OFTEN).	-14	0	0	0	0	0	0
18	2023-04-19	15:41:47	16:23:23	16:23:23:553	116	1	TNT_Think_CSp	fixation	0	5	500	0	0	1	495	1	+	-15	0	0	0	0	0	0
18	2023-04-19	15:41:47	16:23:24	16:23:24:569	116	2	TNT_Think_CSp	Think	0	5	0	0	0	0	1000	1	THINK	-16	0	0	0	0	0	0
18	2023-04-19	15:41:47	16:23:29	16:23:29:586	116	3	TNT_Think_CSp	TNT_Think_CSp	0	5	0	0	0	0	5000	6	Cue29.jpg	-16	0	0	0	0	0	0
18	2023-04-19	15:41:47	16:23:30	16:23:30:393	116	4	TNT_Think_CSp	Intrusion	0	500	3000	0	4	1	790	1	How <b>often</b> did you <b>think</b> about the <b>scene</b>?   <center><br><b>NEVER (1)    BRIEFLY (2)   OFTEN (3) </b>	-16	0	0	0	0	0	0
18	2023-04-19	15:41:47	16:23:33	16:23:33:588	117	1	TNT_Think_CSp	fixation	0	5	1000	0	0	1	995	1	+	-15	0	0	0	0	0	0
18	2023-04-19	15:41:47	16:23:34	16:23:34:603	117	2	TNT_Think_CSp	Think	0	5	0	0	0	0	1000	1	THINK	-16	0	0	0	0	0	0
18	2023-04-19	15:41:47	16:23:39	16:23:39:619	117	3	TNT_Think_CSp	TNT_Think_CSp	0	5	0	0	0	0	5000	3	Cue25.jpg	-16	0	0	0	0	0	0
18	2023-04-19	15:41:47	16:23:40	16:23:40:881	117	4	TNT_Think_CSp	Intrusion	0	1500	3000	0	4	1	244	1	How <b>often</b> did you <b>think</b> about the <b>scene</b>?   <center><br><b>NEVER (1)    BRIEFLY (2)   OFTEN (3) </b>	-16	0	0	0	0	0	0
18	2023-04-19	15:41:47	16:23:43	16:23:43:621	118	1	TNT_Think_CSm	fixation	0	5	1000	0	0	1	995	1	+	-14	0	0	0	0	0	0
18	2023-04-19	15:41:47	16:23:45	16:23:45:637	118	2	TNT_Think_CSm	Think	0	5	0	0	0	0	1000	1	THINK	-16	0	0	0	0	0	0
18	2023-04-19	15:41:47	16:23:50	16:23:50:655	118	3	TNT_Think_CSm	TNT_Think_CSm	0	5	0	0	0	0	5000	5	Cue27.jpg	-16	0	0	0	0	0	0
18	2023-04-19	15:41:47	16:23:50	16:23:50:075	118	4	TNT_Think_CSm	Intrusion	0	1000	3000	0	4	1	403	1	How <b>often</b> did you <b>think</b> about the <b>scene</b>?   <center><br><b>NEVER (1)    BRIEFLY (2)   OFTEN (3) </b>	-16	0	0	0	0	0	0
18	2023-04-19	15:41:47	16:23:54	16:23:54:159	119	1	TNT_Object_CSm	fixation	0	5	1500	0	0	1	1495	1	+	-8	0	0	0	0	0	0
18	2023-04-19	15:41:47	16:23:55	16:23:55:173	119	2	TNT_Object_CSm	Passive	0	5	0	0	0	0	1000	1	VIEW	-16	0	0	0	0	0	0
18	2023-04-19	15:41:47	16:24:00	16:24:00:189	119	3	TNT_Object_CSm	TNT_Object_CSm	0	1500	0	0	0	0	5000	2	Object6.jpg	-16	0	0	0	0	0	0
18	2023-04-19	15:41:47	16:24:02	16:24:02:189	120	1	TNT_NoThink_CSm	fixation	0	5	500	0	0	1	495	1	+	-4	0	0	0	0	0	0
18	2023-04-19	15:41:47	16:24:03	16:24:03:206	120	2	TNT_NoThink_CSm	NoThink	0	5	0	0	0	0	1000	1	DON'T THINK	-16	0	0	0	0	0	0
18	2023-04-19	15:41:47	16:24:08	16:24:08:223	120	3	TNT_NoThink_CSm	TNT_NoThink_CSm	0	5	0	0	0	0	5000	2	Cue5.jpg	-16	0	0	0	0	0	0
18	2023-04-19	15:41:47	16:24:08	16:24:08:572	120	4	TNT_NoThink_CSm	Intrusion	0	1000	3000	0	2	1	331	1	How <b>often</b> did you <b>think</b> about the <b>scene</b>?   <center><br><b>NEVER (1)    BRIEFLY (2)   OFTEN (3) </b>	-16	0	0	0	0	0	0
18	2023-04-19	15:41:47	16:24:12	16:24:12:727	121	1	TNT_Think_CSm	fixation	0	5	500	0	0	1	495	1	+	-9	0	0	0	0	0	0
18	2023-04-19	15:41:47	16:24:13	16:24:13:740	121	2	TNT_Think_CSm	Think	0	5	0	0	0	0	1000	1	THINK	-16	0	0	0	0	0	0
18	2023-04-19	15:41:47	16:24:18	16:24:18:757	121	3	TNT_Think_CSm	TNT_Think_CSm	0	5	0	0	0	0	5000	2	Cue12.jpg	-16	0	0	0	0	0	0
18	2023-04-19	15:41:47	16:24:19	16:24:19:700	121	4	TNT_Think_CSm	Intrusion	0	1500	3000	0	4	1	925	1	How <b>often</b> did you <b>think</b> about the <b>scene</b>?   <center><br><b>NEVER (1)    BRIEFLY (2)   OFTEN (3) </b>	-16	0	0	0	0	0	0
18	2023-04-19	15:41:47	16:24:22	16:24:22:261	122	1	TNT_NoThink_CSm	fixation	0	5	1500	0	0	1	1495	1	+	-9	0	0	0	0	0	0
18	2023-04-19	15:41:47	16:24:23	16:24:23:274	122	2	TNT_NoThink_CSm	NoThink	0	5	0	0	0	0	1000	1	DON'T THINK	-16	0	0	0	0	0	0
18	2023-04-19	15:41:47	16:24:28	16:24:28:291	122	3	TNT_NoThink_CSm	TNT_NoThink_CSm	0	5	0	0	0	0	5000	3	Cue17.jpg	-16	0	0	0	0	0	0
18	2023-04-19	15:41:47	16:24:28	16:24:28:604	122	4	TNT_NoThink_CSm	Intrusion	0	500	3000	0	2	1	295	1	How <b>often</b> did you <b>think</b> about the <b>scene</b>?   <center><br><b>NEVER (1)    BRIEFLY (2)   OFTEN (3) </b>	-16	0	0	0	0	0	0
18	2023-04-19	15:41:47	16:24:32	16:24:32:295	123	1	TNT_Object_CSp	fixation	0	5	1000	0	0	1	995	1	+	-9	0	0	0	0	0	0
18	2023-04-19	15:41:47	16:24:33	16:24:33:308	123	2	TNT_Object_CSp	Passive	0	5	0	0	0	0	1000	1	VIEW	-16	0	0	0	0	0	0
18	2023-04-19	15:41:47	16:24:38	16:24:38:325	123	3	TNT_Object_CSp	TNT_Object_CSp	0	1000	0	0	0	0	5000	2	Object8.jpg	-16	0	0	0	0	0	0
18	2023-04-19	15:41:47	16:24:41	16:24:41:824	124	1	TNT_NoThink_CSp	fixation	0	5	1500	0	0	1	1495	1	+	-8	0	0	0	0	0	0
18	2023-04-19	15:41:47	16:24:42	16:24:42:842	124	2	TNT_NoThink_CSp	NoThink	0	5	0	0	0	0	1000	1	DON'T THINK	-16	0	0	0	0	0	0
18	2023-04-19	15:41:47	16:24:47	16:24:47:859	124	3	TNT_NoThink_CSp	TNT_NoThink_CSp	0	5	0	0	0	0	5000	3	Cue2.jpg	-16	0	0	0	0	0	0
18	2023-04-19	15:41:47	16:24:47	16:24:47:195	124	4	TNT_NoThink_CSp	Intrusion	0	1000	3000	0	2	1	319	1	How <b>often</b> did you <b>think</b> about the <b>scene</b>?   <center><br><b>NEVER (1)    BRIEFLY (2)   OFTEN (3) </b>	-16	0	0	0	0	0	0
18	2023-04-19	15:41:47	16:24:50	16:24:50:363	125	1	TNT_Object_CSp	fixation	0	5	500	0	0	1	495	1	+	-8	0	0	0	0	0	0
18	2023-04-19	15:41:47	16:24:51	16:24:51:376	125	2	TNT_Object_CSp	Passive	0	5	0	0	0	0	1000	1	VIEW	-16	0	0	0	0	0	0
18	2023-04-19	15:41:47	16:24:56	16:24:56:393	125	3	TNT_Object_CSp	TNT_Object_CSp	0	1000	0	0	0	0	5000	1	Object7.jpg	-16	0	0	0	0	0	0
18	2023-04-19	15:41:47	16:24:58	16:24:58:392	126	1	TNT_NoThink_CSp	fixation	0	5	1000	0	0	1	995	1	+	-8	0	0	0	0	0	0
18	2023-04-19	15:41:47	16:24:59	16:24:59:410	126	2	TNT_NoThink_CSp	NoThink	0	5	0	0	0	0	1000	1	DON'T THINK	-16	0	0	0	0	0	0
