subject	date	time	currenttime	currenttime_plus_ms	blocknum	trialnum	blockcode	trialcode	pretrialpause	posttrialpause	trialduration	trialtimeout	response	correct	latency	stimulusnumber1	stimulusitem1	stimulusonset1	stimulusnumber2	stimulusitem2	stimulusonset2	stimulusnumber3	stimulusitem3	stimulusonset3
3	2023-03-23	12:43:55	12:45:41	12:45:41:529	2	1	Reminder_Baseline_CSp	fixation	0	5	1500	0	0	1	1495	1	+	-16	0	0	0	0	0	0
3	2023-03-23	12:43:55	12:45:46	12:45:46:558	2	2	Reminder_Baseline_CSp	Baseline_CSp	0	5	0	0	0	0	5000	1	+	-16	3	Cue36.jpg	-16	3	Target36.jpg	-16
3	2023-03-23	12:43:55	12:45:58	12:45:58:340	2	3	Reminder_Baseline_CSp	valence	0	5	0	0	41	0	11701	1	I found these images to be...	-3	0	0	0	0	0	0
3	2023-03-23	12:43:55	12:46:05	12:46:05:07	2	4	Reminder_Baseline_CSp	expectancy	0	1500	0	0	2	0	6595	1	When you saw the <b>object-scene</b>,   to what <b>degree (0-100%)</b> did you expect the <b>unpleasant sound to occur</b>?	-5	0	0	0	0	0	0
3	2023-03-23	12:43:55	12:46:07	12:46:07:510	3	1	Reminder_Think_CSm	fixation	0	5	1000	0	0	1	995	1	+	-9	0	0	0	0	0	0
3	2023-03-23	12:43:55	12:46:12	12:46:12:527	3	2	Reminder_Think_CSm	Think_CSm	0	5	0	0	0	0	5000	1	+	-16	1	Cue15.jpg	-16	1	Target15.jpg	-16
3	2023-03-23	12:43:55	12:46:18	12:46:18:725	3	3	Reminder_Think_CSm	valence	0	5	0	0	34	0	6173	1	I found these images to be...	-16	0	0	0	0	0	0
3	2023-03-23	12:43:55	12:46:26	12:46:26:441	3	4	Reminder_Think_CSm	expectancy	0	1000	0	0	4	0	7668	1	When you saw the <b>object-scene</b>,   to what <b>degree (0-100%)</b> did you expect the <b>unpleasant sound to occur</b>?	0	0	0	0	0	0	0
3	2023-03-23	12:43:55	12:46:27	12:46:27:940	4	1	Reminder_Think_CSp	fixation	0	5	500	0	0	1	495	1	+	-15	0	0	0	0	0	0
3	2023-03-23	12:43:55	12:46:32	12:46:32:959	4	2	Reminder_Think_CSp	Think_CSp	0	5	0	0	0	0	5000	1	+	-14	1	Cue6.jpg	-14	1	Target6.jpg	-14
3	2023-03-23	12:43:55	12:46:39	12:46:39:659	4	3	Reminder_Think_CSp	valence	0	5	0	0	36	0	6674	1	I found these images to be...	-16	0	0	0	0	0	0
3	2023-03-23	12:43:55	12:46:44	12:46:44:727	4	4	Reminder_Think_CSp	expectancy	0	500	0	0	65	0	5030	1	When you saw the <b>object-scene</b>,   to what <b>degree (0-100%)</b> did you expect the <b>unpleasant sound to occur</b>?	-12	0	0	0	0	0	0
3	2023-03-23	12:43:55	12:46:45	12:46:45:725	5	1	Reminder_Think_CSm	fixation	0	5	500	0	0	1	495	1	+	-15	0	0	0	0	0	0
3	2023-03-23	12:43:55	12:46:50	12:46:50:743	5	2	Reminder_Think_CSm	Think_CSm	0	5	0	0	0	0	5000	1	+	-14	4	Cue18.jpg	-14	4	Target18.jpg	-14
3	2023-03-23	12:43:55	12:46:56	12:46:56:677	5	3	Reminder_Think_CSm	valence	0	5	0	0	17	0	5882	1	I found these images to be...	-16	0	0	0	0	0	0
3	2023-03-23	12:43:55	12:47:01	12:47:01:493	5	4	Reminder_Think_CSm	expectancy	0	500	0	0	82	0	4748	1	When you saw the <b>object-scene</b>,   to what <b>degree (0-100%)</b> did you expect the <b>unpleasant sound to occur</b>?	-11	0	0	0	0	0	0
3	2023-03-23	12:43:55	12:47:02	12:47:02:980	6	1	Reminder_NoThink_CSp	fixation	0	5	1000	0	0	1	995	1	+	-8	0	0	0	0	0	0
3	2023-03-23	12:43:55	12:47:08	12:47:08:997	6	2	Reminder_NoThink_CSp	NoThink_CSp	0	5	0	0	0	0	5000	1	+	-16	3	Cue21.jpg	-16	3	Target21.jpg	-16
3	2023-03-23	12:43:55	12:47:13	12:47:13:062	6	3	Reminder_NoThink_CSp	valence	0	5	0	0	23	0	5047	1	I found these images to be...	-16	0	0	0	0	0	0
3	2023-03-23	12:43:55	12:47:18	12:47:18:295	6	4	Reminder_NoThink_CSp	expectancy	0	1000	0	0	1	0	5195	1	When you saw the <b>object-scene</b>,   to what <b>degree (0-100%)</b> did you expect the <b>unpleasant sound to occur</b>?	-12	0	0	0	0	0	0
3	2023-03-23	12:43:55	12:47:20	12:47:20:795	7	1	Reminder_NoThink_CSm	fixation	0	5	1500	0	0	1	1495	1	+	-15	0	0	0	0	0	0
3	2023-03-23	12:43:55	12:47:25	12:47:25:812	7	2	Reminder_NoThink_CSm	NoThink_CSm	0	5	0	0	0	0	5000	1	+	-16	5	Cue3.jpg	-16	5	Target3.jpg	-16
3	2023-03-23	12:43:55	12:47:31	12:47:31:846	7	3	Reminder_NoThink_CSm	valence	0	5	0	0	19	0	6013	1	I found these images to be...	-16	0	0	0	0	0	0
3	2023-03-23	12:43:55	12:47:38	12:47:38:979	7	4	Reminder_NoThink_CSm	expectancy	0	1500	0	0	1	0	7083	1	When you saw the <b>object-scene</b>,   to what <b>degree (0-100%)</b> did you expect the <b>unpleasant sound to occur</b>?	-12	0	0	0	0	0	0
3	2023-03-23	12:43:55	12:47:41	12:47:41:980	8	1	Reminder_Think_CSp	fixation	0	5	1500	0	0	1	1495	1	+	-15	0	0	0	0	0	0
3	2023-03-23	12:43:55	12:47:47	12:47:47:996	8	2	Reminder_Think_CSp	Think_CSp	0	5	0	0	0	0	5000	1	+	-16	6	Cue11.jpg	-16	6	Target11.jpg	-16
3	2023-03-23	12:43:55	12:47:52	12:47:52:030	8	3	Reminder_Think_CSp	valence	0	5	0	0	29	0	5013	1	I found these images to be...	-16	0	0	0	0	0	0
3	2023-03-23	12:43:55	12:48:01	12:48:01:764	8	4	Reminder_Think_CSp	expectancy	0	1000	0	0	96	0	9699	1	When you saw the <b>object-scene</b>,   to what <b>degree (0-100%)</b> did you expect the <b>unpleasant sound to occur</b>?	-12	0	0	0	0	0	0
3	2023-03-23	12:43:55	12:48:03	12:48:03:264	9	1	Reminder_Baseline_CSm	fixation	0	5	500	0	0	1	495	1	+	-15	0	0	0	0	0	0
3	2023-03-23	12:43:55	12:48:08	12:48:08:281	9	2	Reminder_Baseline_CSm	Baseline_CSm	0	5	0	0	0	0	5000	1	+	-16	5	Cue2.jpg	-16	5	Target2.jpg	-16
3	2023-03-23	12:43:55	12:48:15	12:48:15:698	9	3	Reminder_Baseline_CSm	valence	0	5	0	0	18	0	7393	1	I found these images to be...	-16	0	0	0	0	0	0
3	2023-03-23	12:43:55	12:48:19	12:48:19:865	9	4	Reminder_Baseline_CSm	expectancy	0	1500	0	0	0	0	4127	1	When you saw the <b>object-scene</b>,   to what <b>degree (0-100%)</b> did you expect the <b>unpleasant sound to occur</b>?	-12	0	0	0	0	0	0
3	2023-03-23	12:43:55	12:48:22	12:48:22:366	10	1	Reminder_NoThink_CSp	fixation	0	5	1000	0	0	1	995	1	+	-14	0	0	0	0	0	0
3	2023-03-23	12:43:55	12:48:27	12:48:27:382	10	2	Reminder_NoThink_CSp	NoThink_CSp	0	5	0	0	0	0	5000	1	+	-16	5	Cue22.jpg	-16	5	Target22.jpg	-16
3	2023-03-23	12:43:55	12:48:35	12:48:35:016	10	3	Reminder_NoThink_CSp	valence	0	5	0	0	32	0	7611	1	I found these images to be...	-16	0	0	0	0	0	0
3	2023-03-23	12:43:55	12:48:40	12:48:40:182	10	4	Reminder_NoThink_CSp	expectancy	0	500	0	0	3	0	5129	1	When you saw the <b>object-scene</b>,   to what <b>degree (0-100%)</b> did you expect the <b>unpleasant sound to occur</b>?	-12	0	0	0	0	0	0
3	2023-03-23	12:43:55	12:48:42	12:48:42:183	11	1	Reminder_Objects_CSm	fixation	0	5	1500	0	0	1	1495	1	+	-15	0	0	0	0	0	0
3	2023-03-23	12:43:55	12:48:47	12:48:47:200	11	2	Reminder_Objects_CSm	Objects_CSm	0	5	0	0	0	0	5000	4	Object6.jpg	-16	0	0	0	0	0	0
3	2023-03-23	12:43:55	12:48:53	12:48:53:817	11	3	Reminder_Objects_CSm	expectancy_object	0	1500	0	0	9	0	6594	1	When you saw the <b>object</b>,   to what <b>degree (0-100%)</b> did you expect the <b>unpleasant sound to occur</b>?	-16	0	0	0	0	0	0
3	2023-03-23	12:43:55	12:48:55	12:48:55:816	12	1	Reminder_Think_CSm	fixation	0	5	500	0	0	1	495	1	+	-15	0	0	0	0	0	0
3	2023-03-23	12:43:55	12:49:00	12:49:00:834	12	2	Reminder_Think_CSm	Think_CSm	0	5	0	0	0	0	5000	1	+	-16	6	Cue23.jpg	-16	6	Target23.jpg	-16
3	2023-03-23	12:43:55	12:49:06	12:49:06:101	12	3	Reminder_Think_CSm	valence	0	5	0	0	33	0	5239	1	I found these images to be...	-16	0	0	0	0	0	0
3	2023-03-23	12:43:55	12:49:10	12:49:10:135	12	4	Reminder_Think_CSm	expectancy	0	1000	0	0	1	0	3988	1	When you saw the <b>object-scene</b>,   to what <b>degree (0-100%)</b> did you expect the <b>unpleasant sound to occur</b>?	-12	0	0	0	0	0	0
3	2023-03-23	12:43:55	12:49:12	12:49:12:134	13	1	PracticeItems_Think	fixation	0	5	1000	0	0	1	995	1	+	-15	0	0	0	0	0	0
3	2023-03-23	12:43:55	12:49:17	12:49:17:151	13	2	PracticeItems_Think	PracticeItems_Think	0	5	0	0	0	0	5000	1	+	-14	2	Cue38.jpg	-14	2	Target38.jpg	-14
3	2023-03-23	12:43:55	12:49:24	12:49:24:252	13	3	PracticeItems_Think	valence	0	5	0	0	12	0	7082	1	I found these images to be...	-16	0	0	0	0	0	0
3	2023-03-23	12:43:55	12:49:30	12:49:30:086	13	4	PracticeItems_Think	expectancy	0	1500	0	0	1	0	5789	1	When you saw the <b>object-scene</b>,   to what <b>degree (0-100%)</b> did you expect the <b>unpleasant sound to occur</b>?	-12	0	0	0	0	0	0
3	2023-03-23	12:43:55	12:49:32	12:49:32:087	14	1	Reminder_Baseline_CSm	fixation	0	5	500	0	0	1	495	1	+	-15	0	0	0	0	0	0
3	2023-03-23	12:43:55	12:49:37	12:49:37:105	14	2	Reminder_Baseline_CSm	Baseline_CSm	0	5	0	0	0	0	5000	1	+	-16	2	Cue1.jpg	-16	2	Target1.jpg	-16
3	2023-03-23	12:43:55	12:49:45	12:49:45:036	14	3	Reminder_Baseline_CSm	valence	0	5	0	0	30	0	7915	1	I found these images to be...	-16	0	0	0	0	0	0
3	2023-03-23	12:43:55	12:49:50	12:49:50:237	14	4	Reminder_Baseline_CSm	expectancy	0	500	0	0	0	0	5156	1	When you saw the <b>object-scene</b>,   to what <b>degree (0-100%)</b> did you expect the <b>unpleasant sound to occur</b>?	-10	0	0	0	0	0	0
3	2023-03-23	12:43:55	12:49:51	12:49:51:738	15	1	Reminder_Think_CSp	fixation	0	5	1000	0	0	1	995	1	+	-15	0	0	0	0	0	0
3	2023-03-23	12:43:55	12:49:56	12:49:56:754	15	2	Reminder_Think_CSp	Think_CSp	0	5	0	0	0	0	5000	1	+	-16	3	Cue10.jpg	-16	3	Target10.jpg	-16
3	2023-03-23	12:43:55	12:50:03	12:50:03:754	15	3	Reminder_Think_CSp	valence	0	5	0	0	14	0	6976	1	I found these images to be...	-16	0	0	0	0	0	0
3	2023-03-23	12:43:55	12:50:09	12:50:09:588	15	4	Reminder_Think_CSp	expectancy	0	1000	0	0	93	0	5799	1	When you saw the <b>object-scene</b>,   to what <b>degree (0-100%)</b> did you expect the <b>unpleasant sound to occur</b>?	-10	0	0	0	0	0	0
3	2023-03-23	12:43:55	12:50:12	12:50:12:088	16	1	Reminder_Think_CSm	fixation	0	5	1500	0	0	1	1495	1	+	-14	0	0	0	0	0	0
3	2023-03-23	12:43:55	12:50:17	12:50:17:105	16	2	Reminder_Think_CSm	Think_CSm	0	5	0	0	0	0	5000	1	+	-16	5	Cue26.jpg	-16	5	Target26.jpg	-16
3	2023-03-23	12:43:55	12:50:30	12:50:30:489	16	3	Reminder_Think_CSm	valence	0	5	0	0	48	0	13353	1	I found these images to be...	-16	0	0	0	0	0	0
3	2023-03-23	12:43:55	12:50:40	12:50:40:507	16	4	Reminder_Think_CSm	expectancy	0	500	0	0	8	0	9976	1	When you saw the <b>object-scene</b>,   to what <b>degree (0-100%)</b> did you expect the <b>unpleasant sound to occur</b>?	0	0	0	0	0	0	0
3	2023-03-23	12:43:55	12:50:42	12:50:42:07	17	1	Reminder_NoThink_CSm	fixation	0	5	1000	0	0	1	995	1	+	-14	0	0	0	0	0	0
3	2023-03-23	12:43:55	12:50:47	12:50:47:023	17	2	Reminder_NoThink_CSm	NoThink_CSm	0	5	0	0	0	0	5000	1	+	-16	1	Cue32.jpg	-16	1	Target32.jpg	-16
3	2023-03-23	12:43:55	12:50:52	12:50:52:257	17	3	Reminder_NoThink_CSm	valence	0	5	0	0	22	0	5202	1	I found these images to be...	-16	0	0	0	0	0	0
3	2023-03-23	12:43:55	12:51:04	12:51:04:607	17	4	Reminder_NoThink_CSm	expectancy	0	1500	0	0	4	0	12312	1	When you saw the <b>object-scene</b>,   to what <b>degree (0-100%)</b> did you expect the <b>unpleasant sound to occur</b>?	-12	0	0	0	0	0	0
3	2023-03-23	12:43:55	12:51:06	12:51:06:608	18	1	Reminder_Objects_CSm	fixation	0	5	500	0	0	1	495	1	+	-15	0	0	0	0	0	0
3	2023-03-23	12:43:55	12:51:11	12:51:11:625	18	2	Reminder_Objects_CSm	Objects_CSm	0	5	0	0	0	0	5000	3	Object3.jpg	-16	0	0	0	0	0	0
3	2023-03-23	12:43:55	12:51:15	12:51:15:908	18	3	Reminder_Objects_CSm	expectancy_object	0	1000	0	0	3	0	4257	1	When you saw the <b>object</b>,   to what <b>degree (0-100%)</b> did you expect the <b>unpleasant sound to occur</b>?	-16	0	0	0	0	0	0
3	2023-03-23	12:43:55	12:51:18	12:51:18:409	19	1	Reminder_Objects_CSm	fixation	0	5	1500	0	0	1	1495	1	+	-9	0	0	0	0	0	0
3	2023-03-23	12:43:55	12:51:23	12:51:23:428	19	2	Reminder_Objects_CSm	Objects_CSm	0	5	0	0	0	0	5000	2	Object5.jpg	-16	0	0	0	0	0	0
3	2023-03-23	12:43:55	12:51:30	12:51:30:142	19	3	Reminder_Objects_CSm	expectancy_object	0	500	0	0	1	0	6664	1	When you saw the <b>object</b>,   to what <b>degree (0-100%)</b> did you expect the <b>unpleasant sound to occur</b>?	-16	0	0	0	0	0	0
3	2023-03-23	12:43:55	12:51:31	12:51:31:128	20	1	Reminder_Objects_CSp	fixation	0	5	500	0	0	1	495	1	+	-8	0	0	0	0	0	0
3	2023-03-23	12:43:55	12:51:36	12:51:36:145	20	2	Reminder_Objects_CSp	Objects_CSp	0	5	0	0	0	0	5000	4	Object1.jpg	-16	0	0	0	0	0	0
3	2023-03-23	12:43:55	12:51:40	12:51:40:826	20	3	Reminder_Objects_CSp	expectancy_object	0	500	0	0	99	0	4627	1	When you saw the <b>object</b>,   to what <b>degree (0-100%)</b> did you expect the <b>unpleasant sound to occur</b>?	-16	0	0	0	0	0	0
3	2023-03-23	12:43:55	12:51:42	12:51:42:813	21	1	PracticeItems_NoThink	fixation	0	5	1500	0	0	1	1495	1	+	-8	0	0	0	0	0	0
3	2023-03-23	12:43:55	12:51:47	12:51:47:829	21	2	PracticeItems_NoThink	PracticeItems_NoThink	0	5	0	0	0	0	5000	1	+	-16	1	Cue39.jpg	-16	1	Target39.jpg	-16
3	2023-03-23	12:43:55	12:51:52	12:51:52:727	21	3	PracticeItems_NoThink	valence	0	5	0	0	11	0	4870	1	I found these images to be...	-16	0	0	0	0	0	0
3	2023-03-23	12:43:55	12:51:58	12:51:58:844	21	4	PracticeItems_NoThink	expectancy	0	1500	0	0	99	0	6074	1	When you saw the <b>object-scene</b>,   to what <b>degree (0-100%)</b> did you expect the <b>unpleasant sound to occur</b>?	0	0	0	0	0	0	0
3	2023-03-23	12:43:55	12:52:01	12:52:01:348	22	1	Reminder_NoThink_CSp	fixation	0	5	1000	0	0	1	995	1	+	-8	0	0	0	0	0	0
3	2023-03-23	12:43:55	12:52:06	12:52:06:364	22	2	Reminder_NoThink_CSp	NoThink_CSp	0	5	0	0	0	0	5000	1	+	-16	2	Cue34.jpg	-16	2	Target34.jpg	-16
3	2023-03-23	12:43:55	12:52:11	12:52:11:895	22	3	Reminder_NoThink_CSp	valence	0	5	0	0	8	0	5504	1	I found these images to be...	-16	0	0	0	0	0	0
3	2023-03-23	12:43:55	12:52:17	12:52:17:512	22	4	Reminder_NoThink_CSp	expectancy	0	1000	0	0	8	0	5578	1	When you saw the <b>object-scene</b>,   to what <b>degree (0-100%)</b> did you expect the <b>unpleasant sound to occur</b>?	0	0	0	0	0	0	0
3	2023-03-23	12:43:55	12:52:20	12:52:20:011	23	1	Reminder_Objects_CSp	fixation	0	5	1500	0	0	1	1495	1	+	-15	0	0	0	0	0	0
3	2023-03-23	12:43:55	12:52:25	12:52:25:029	23	2	Reminder_Objects_CSp	Objects_CSp	0	5	0	0	0	0	5000	1	Object8.jpg	-14	0	0	0	0	0	0
3	2023-03-23	12:43:55	12:52:30	12:52:30:779	23	3	Reminder_Objects_CSp	expectancy_object	0	1000	0	0	5	0	5725	1	When you saw the <b>object</b>,   to what <b>degree (0-100%)</b> did you expect the <b>unpleasant sound to occur</b>?	-16	0	0	0	0	0	0
3	2023-03-23	12:43:55	12:52:32	12:52:32:278	24	1	Reminder_Objects_CSp	fixation	0	5	500	0	0	1	495	1	+	-15	0	0	0	0	0	0
3	2023-03-23	12:43:55	12:52:37	12:52:37:296	24	2	Reminder_Objects_CSp	Objects_CSp	0	5	0	0	0	0	5000	3	Object4.jpg	-14	0	0	0	0	0	0
3	2023-03-23	12:43:55	12:52:43	12:52:43:130	24	3	Reminder_Objects_CSp	expectancy_object	0	1500	0	0	99	0	5809	1	When you saw the <b>object</b>,   to what <b>degree (0-100%)</b> did you expect the <b>unpleasant sound to occur</b>?	-16	0	0	0	0	0	0
3	2023-03-23	12:43:55	12:52:45	12:52:45:629	25	1	Reminder_Baseline_CSm	fixation	0	5	1000	0	0	1	995	1	+	-14	0	0	0	0	0	0
3	2023-03-23	12:43:55	12:52:50	12:52:50:647	25	2	Reminder_Baseline_CSm	Baseline_CSm	0	5	0	0	0	0	5000	1	+	-14	6	Cue19.jpg	-14	6	Target19.jpg	-14
3	2023-03-23	12:43:55	12:52:56	12:52:56:848	25	3	Reminder_Baseline_CSm	valence	0	5	0	0	9	0	6178	1	I found these images to be...	-16	0	0	0	0	0	0
3	2023-03-23	12:43:55	12:53:02	12:53:02:631	25	4	Reminder_Baseline_CSm	expectancy	0	500	0	0	3	0	5713	1	When you saw the <b>object-scene</b>,   to what <b>degree (0-100%)</b> did you expect the <b>unpleasant sound to occur</b>?	-11	0	0	0	0	0	0
3	2023-03-23	12:43:55	12:53:03	12:53:03:617	26	1	Reminder_Baseline_CSp	fixation	0	5	500	0	0	1	495	1	+	-8	0	0	0	0	0	0
3	2023-03-23	12:43:55	12:53:08	12:53:08:634	26	2	Reminder_Baseline_CSp	Baseline_CSp	0	5	0	0	0	0	5000	1	+	-16	1	Cue25.jpg	-16	1	Target25.jpg	-16
3	2023-03-23	12:43:55	12:53:18	12:53:18:815	26	3	Reminder_Baseline_CSp	valence	0	5	0	0	5	0	10130	1	I found these images to be...	-16	0	0	0	0	0	0
3	2023-03-23	12:43:55	12:53:23	12:53:23:416	26	4	Reminder_Baseline_CSp	expectancy	0	1500	0	0	2	0	4561	1	When you saw the <b>object-scene</b>,   to what <b>degree (0-100%)</b> did you expect the <b>unpleasant sound to occur</b>?	-6	0	0	0	0	0	0
3	2023-03-23	12:43:55	12:53:26	12:53:26:415	27	1	Reminder_NoThink_CSm	fixation	0	5	1500	0	0	1	1495	1	+	-15	0	0	0	0	0	0
3	2023-03-23	12:43:55	12:53:31	12:53:31:432	27	2	Reminder_NoThink_CSm	NoThink_CSm	0	5	0	0	0	0	5000	1	+	-14	2	Cue16.jpg	-14	2	Target16.jpg	-14
3	2023-03-23	12:43:55	12:53:35	12:53:35:333	27	3	Reminder_NoThink_CSm	valence	0	5	0	0	48	0	3881	1	I found these images to be...	-16	0	0	0	0	0	0
3	2023-03-23	12:43:55	12:53:40	12:53:40:850	27	4	Reminder_NoThink_CSm	expectancy	0	500	0	0	1	0	5468	1	When you saw the <b>object-scene</b>,   to what <b>degree (0-100%)</b> did you expect the <b>unpleasant sound to occur</b>?	-12	0	0	0	0	0	0
3	2023-03-23	12:43:55	12:53:42	12:53:42:349	28	1	Reminder_Think_CSp	fixation	0	5	1000	0	0	1	995	1	+	-14	0	0	0	0	0	0
3	2023-03-23	12:43:55	12:53:47	12:53:47:367	28	2	Reminder_Think_CSp	Think_CSp	0	5	0	0	0	0	5000	1	+	-14	4	Cue12.jpg	-14	4	Target12.jpg	-14
3	2023-03-23	12:43:55	12:53:52	12:53:52:167	28	3	Reminder_Think_CSp	valence	0	5	0	0	22	0	4778	1	I found these images to be...	-16	0	0	0	0	0	0
3	2023-03-23	12:43:55	12:53:56	12:53:56:534	28	4	Reminder_Think_CSp	expectancy	0	1000	0	0	0	0	4298	1	When you saw the <b>object-scene</b>,   to what <b>degree (0-100%)</b> did you expect the <b>unpleasant sound to occur</b>?	-12	0	0	0	0	0	0
3	2023-03-23	12:43:55	12:53:59	12:53:59:020	29	1	Reminder_Baseline_CSp	fixation	0	5	1500	0	0	1	1495	1	+	-8	0	0	0	0	0	0
3	2023-03-23	12:43:55	12:54:04	12:54:04:037	29	2	Reminder_Baseline_CSp	Baseline_CSp	0	5	0	0	0	0	5000	1	+	-16	4	Cue31.jpg	-16	4	Target31.jpg	-16
3	2023-03-23	12:43:55	12:54:08	12:54:08:201	29	3	Reminder_Baseline_CSp	valence	0	5	0	0	8	0	4111	1	I found these images to be...	-16	0	0	0	0	0	0
3	2023-03-23	12:43:55	12:54:18	12:54:18:336	29	4	Reminder_Baseline_CSp	expectancy	0	1500	0	0	11	0	10095	1	When you saw the <b>object-scene</b>,   to what <b>degree (0-100%)</b> did you expect the <b>unpleasant sound to occur</b>?	-7	0	0	0	0	0	0
3	2023-03-23	12:43:55	12:54:20	12:54:20:335	30	1	Reminder_NoThink_CSm	fixation	0	5	500	0	0	1	495	1	+	-15	0	0	0	0	0	0
3	2023-03-23	12:43:55	12:54:25	12:54:25:352	30	2	Reminder_NoThink_CSm	NoThink_CSm	0	5	0	0	0	0	5000	1	+	-16	6	Cue4.jpg	-16	6	Target4.jpg	-16
3	2023-03-23	12:43:55	12:54:29	12:54:29:035	30	3	Reminder_NoThink_CSm	valence	0	5	0	0	24	0	3633	1	I found these images to be...	-16	0	0	0	0	0	0
3	2023-03-23	12:43:55	12:54:31	12:54:31:819	30	4	Reminder_NoThink_CSm	expectancy	0	1000	0	0	4	0	2717	1	When you saw the <b>object-scene</b>,   to what <b>degree (0-100%)</b> did you expect the <b>unpleasant sound to occur</b>?	-10	0	0	0	0	0	0
3	2023-03-23	12:43:55	12:54:33	12:54:33:802	31	1	Reminder_NoThink_CSm	fixation	0	5	1000	0	0	1	995	1	+	-15	0	0	0	0	0	0
3	2023-03-23	12:43:55	12:54:38	12:54:38:820	31	2	Reminder_NoThink_CSm	NoThink_CSm	0	5	0	0	0	0	5000	1	+	-14	4	Cue30.jpg	-14	4	Target30.jpg	-14
3	2023-03-23	12:43:55	12:54:44	12:54:44:204	31	3	Reminder_NoThink_CSm	valence	0	5	0	0	24	0	5357	1	I found these images to be...	-16	0	0	0	0	0	0
3	2023-03-23	12:43:55	12:54:47	12:54:47:437	31	4	Reminder_NoThink_CSm	expectancy	0	500	0	0	98	0	3197	1	When you saw the <b>object-scene</b>,   to what <b>degree (0-100%)</b> did you expect the <b>unpleasant sound to occur</b>?	-10	0	0	0	0	0	0
3	2023-03-23	12:43:55	12:54:48	12:54:48:936	32	1	Reminder_Objects_CSm	fixation	0	5	1000	0	0	1	995	1	+	-15	0	0	0	0	0	0
3	2023-03-23	12:43:55	12:54:53	12:54:53:956	32	2	Reminder_Objects_CSm	Objects_CSm	0	5	0	0	0	0	5000	1	Object7.jpg	-12	0	0	0	0	0	0
3	2023-03-23	12:43:55	12:54:56	12:54:56:787	32	3	Reminder_Objects_CSm	expectancy_object	0	500	0	0	2	0	2775	1	When you saw the <b>object</b>,   to what <b>degree (0-100%)</b> did you expect the <b>unpleasant sound to occur</b>?	-16	0	0	0	0	0	0
3	2023-03-23	12:43:55	12:54:58	12:54:58:774	33	1	Reminder_Baseline_CSm	fixation	0	5	1500	0	0	1	1495	1	+	-8	0	0	0	0	0	0
3	2023-03-23	12:43:55	12:55:03	12:55:03:791	33	2	Reminder_Baseline_CSm	Baseline_CSm	0	5	0	0	0	0	5000	1	+	-16	3	Cue33.jpg	-16	3	Target33.jpg	-16
3	2023-03-23	12:43:55	12:55:08	12:55:08:738	33	3	Reminder_Baseline_CSm	valence	0	5	0	0	31	0	4894	1	I found these images to be...	-16	0	0	0	0	0	0
3	2023-03-23	12:43:55	12:55:12	12:55:12:939	33	4	Reminder_Baseline_CSm	expectancy	0	1000	0	0	18	0	4159	1	When you saw the <b>object-scene</b>,   to what <b>degree (0-100%)</b> did you expect the <b>unpleasant sound to occur</b>?	-7	0	0	0	0	0	0
3	2023-03-23	12:43:55	12:55:14	12:55:14:437	34	1	Reminder_NoThink_CSp	fixation	0	5	500	0	0	1	495	1	+	-15	0	0	0	0	0	0
3	2023-03-23	12:43:55	12:55:19	12:55:19:455	34	2	Reminder_NoThink_CSp	NoThink_CSp	0	5	0	0	0	0	5000	1	+	-14	6	Cue9.jpg	-14	6	Target9.jpg	-14
3	2023-03-23	12:43:55	12:55:25	12:55:25:572	34	3	Reminder_NoThink_CSp	valence	0	5	0	0	21	0	6066	1	I found these images to be...	-16	0	0	0	0	0	0
3	2023-03-23	12:43:55	12:55:40	12:55:40:139	34	4	Reminder_NoThink_CSp	expectancy	0	500	0	0	9	0	14500	1	When you saw the <b>object-scene</b>,   to what <b>degree (0-100%)</b> did you expect the <b>unpleasant sound to occur</b>?	-11	0	0	0	0	0	0
3	2023-03-23	12:43:55	12:55:42	12:55:42:123	35	1	PracticeItems_NoThink	fixation	0	5	1500	0	0	1	1495	1	+	-12	0	0	0	0	0	0
3	2023-03-23	12:43:55	12:55:47	12:55:47:143	35	2	PracticeItems_NoThink	PracticeItems_NoThink	0	5	0	0	0	0	5000	1	+	-5	2	Cue40.jpg	-5	2	Target40.jpg	-5
3	2023-03-23	12:43:55	12:55:53	12:55:53:557	35	3	PracticeItems_NoThink	valence	0	5	0	0	9	0	6365	1	I found these images to be...	-16	0	0	0	0	0	0
3	2023-03-23	12:43:55	12:55:57	12:55:57:241	35	4	PracticeItems_NoThink	expectancy	0	1500	0	0	4	0	3635	1	When you saw the <b>object-scene</b>,   to what <b>degree (0-100%)</b> did you expect the <b>unpleasant sound to occur</b>?	-7	0	0	0	0	0	0
3	2023-03-23	12:43:55	12:55:59	12:55:59:239	36	1	Reminder_Think_CSp	fixation	0	5	500	0	0	1	495	1	+	-15	0	0	0	0	0	0
3	2023-03-23	12:43:55	12:56:04	12:56:04:258	36	2	Reminder_Think_CSp	Think_CSp	0	5	0	0	0	0	5000	1	+	-13	5	Cue24.jpg	-13	5	Target24.jpg	-13
3	2023-03-23	12:43:55	12:56:08	12:56:08:209	36	3	Reminder_Think_CSp	valence	0	5	0	0	31	0	3927	1	I found these images to be...	-16	0	0	0	0	0	0
3	2023-03-23	12:43:55	12:56:11	12:56:11:192	36	4	Reminder_Think_CSp	expectancy	0	1000	0	0	38	0	2936	1	When you saw the <b>object-scene</b>,   to what <b>degree (0-100%)</b> did you expect the <b>unpleasant sound to occur</b>?	-12	0	0	0	0	0	0
3	2023-03-23	12:43:55	12:56:13	12:56:13:191	37	1	Reminder_Think_CSm	fixation	0	5	1000	0	0	1	995	1	+	-15	0	0	0	0	0	0
3	2023-03-23	12:43:55	12:56:18	12:56:18:209	37	2	Reminder_Think_CSm	Think_CSm	0	5	0	0	0	0	5000	1	+	-14	2	Cue35.jpg	-14	2	Target35.jpg	-14
3	2023-03-23	12:43:55	12:56:23	12:56:23:209	37	3	Reminder_Think_CSm	valence	0	5	0	0	32	0	4968	1	I found these images to be...	-16	0	0	0	0	0	0
3	2023-03-23	12:43:55	12:56:26	12:56:26:643	37	4	Reminder_Think_CSm	expectancy	0	1500	0	0	66	0	3392	1	When you saw the <b>object-scene</b>,   to what <b>degree (0-100%)</b> did you expect the <b>unpleasant sound to occur</b>?	-12	0	0	0	0	0	0
3	2023-03-23	12:43:55	12:56:29	12:56:29:142	38	1	Reminder_Objects_CSp	fixation	0	5	1000	0	0	1	995	1	+	-15	0	0	0	0	0	0
3	2023-03-23	12:43:55	12:56:34	12:56:34:161	38	2	Reminder_Objects_CSp	Objects_CSp	0	5	0	0	0	0	5000	2	Object2.jpg	-16	0	0	0	0	0	0
3	2023-03-23	12:43:55	12:56:39	12:56:39:810	38	3	Reminder_Objects_CSp	expectancy_object	0	1000	0	0	81	0	5593	1	When you saw the <b>object</b>,   to what <b>degree (0-100%)</b> did you expect the <b>unpleasant sound to occur</b>?	-16	0	0	0	0	0	0
3	2023-03-23	12:43:55	12:56:41	12:56:41:296	39	1	PracticeItems_Think	fixation	0	5	500	0	0	1	495	1	+	-8	0	0	0	0	0	0
3	2023-03-23	12:43:55	12:56:46	12:56:46:313	39	2	PracticeItems_Think	PracticeItems_Think	0	5	0	0	0	0	5000	1	+	-16	1	Cue37.jpg	-16	1	Target37.jpg	-16
3	2023-03-23	12:43:55	12:56:53	12:56:53:194	39	3	PracticeItems_Think	valence	0	5	0	0	35	0	6827	1	I found these images to be...	-16	0	0	0	0	0	0
3	2023-03-23	12:43:55	12:56:57	12:56:57:172	39	4	PracticeItems_Think	expectancy	0	500	0	0	8	0	3911	1	When you saw the <b>object-scene</b>,   to what <b>degree (0-100%)</b> did you expect the <b>unpleasant sound to occur</b>?	-7	0	0	0	0	0	0
3	2023-03-23	12:43:55	12:56:59	12:56:59:161	40	1	Reminder_Baseline_CSp	fixation	0	5	1500	0	0	1	1495	1	+	-8	0	0	0	0	0	0
3	2023-03-23	12:43:55	12:57:04	12:57:04:180	40	2	Reminder_Baseline_CSp	Baseline_CSp	0	5	0	0	0	0	5000	1	+	-16	2	Cue27.jpg	-16	2	Target27.jpg	-16
3	2023-03-23	12:43:55	12:57:08	12:57:08:012	40	3	Reminder_Baseline_CSp	valence	0	5	0	0	19	0	3807	1	I found these images to be...	-16	0	0	0	0	0	0
3	2023-03-23	12:43:55	12:57:10	12:57:10:428	40	4	Reminder_Baseline_CSp	expectancy	0	500	0	0	3	0	2349	1	When you saw the <b>object-scene</b>,   to what <b>degree (0-100%)</b> did you expect the <b>unpleasant sound to occur</b>?	0	0	0	0	0	0	0
3	2023-03-23	12:43:55	12:57:11	12:57:11:411	41	1	Reminder_Baseline_CSm	fixation	0	5	500	0	0	1	495	1	+	-14	0	0	0	0	0	0
3	2023-03-23	12:43:55	12:57:16	12:57:16:428	41	2	Reminder_Baseline_CSm	Baseline_CSm	0	5	0	0	0	0	5000	1	+	-16	1	Cue14.jpg	-16	1	Target14.jpg	-16
3	2023-03-23	12:43:55	12:57:20	12:57:20:212	41	3	Reminder_Baseline_CSm	valence	0	5	0	0	11	0	3733	1	I found these images to be...	-16	0	0	0	0	0	0
3	2023-03-23	12:43:55	12:57:23	12:57:23:579	41	4	Reminder_Baseline_CSm	expectancy	0	1000	0	0	2	0	3300	1	When you saw the <b>object-scene</b>,   to what <b>degree (0-100%)</b> did you expect the <b>unpleasant sound to occur</b>?	-11	0	0	0	0	0	0
3	2023-03-23	12:43:55	12:57:26	12:57:26:064	42	1	Reminder_Baseline_CSp	fixation	0	5	1500	0	0	1	1495	1	+	-9	0	0	0	0	0	0
3	2023-03-23	12:43:55	12:57:31	12:57:31:082	42	2	Reminder_Baseline_CSp	Baseline_CSp	0	5	0	0	0	0	5000	1	+	-16	6	Cue13.jpg	-16	6	Target13.jpg	-16
3	2023-03-23	12:43:55	12:57:33	12:57:33:646	42	3	Reminder_Baseline_CSp	valence	0	5	0	0	39	0	2514	1	I found these images to be...	-16	0	0	0	0	0	0
3	2023-03-23	12:43:55	12:57:35	12:57:35:696	42	4	Reminder_Baseline_CSp	expectancy	0	1500	0	0	3	0	1985	1	When you saw the <b>object-scene</b>,   to what <b>degree (0-100%)</b> did you expect the <b>unpleasant sound to occur</b>?	-7	0	0	0	0	0	0
3	2023-03-23	12:43:55	12:57:38	12:57:38:199	43	1	Reminder_Baseline_CSp	fixation	0	5	1000	0	0	1	995	1	+	-8	0	0	0	0	0	0
3	2023-03-23	12:43:55	12:57:43	12:57:43:216	43	2	Reminder_Baseline_CSp	Baseline_CSp	0	5	0	0	0	0	5000	1	+	-16	5	Cue5.jpg	-16	5	Target5.jpg	-16
3	2023-03-23	12:43:55	12:57:49	12:57:49:497	43	3	Reminder_Baseline_CSp	valence	0	5	0	0	18	0	6228	1	I found these images to be...	-16	0	0	0	0	0	0
3	2023-03-23	12:43:55	12:57:52	12:57:52:014	43	4	Reminder_Baseline_CSp	expectancy	0	500	0	0	2	0	2479	1	When you saw the <b>object-scene</b>,   to what <b>degree (0-100%)</b> did you expect the <b>unpleasant sound to occur</b>?	-7	0	0	0	0	0	0
3	2023-03-23	12:43:55	12:57:53	12:57:53:013	44	1	Reminder_Baseline_CSm	fixation	0	5	500	0	0	1	495	1	+	-15	0	0	0	0	0	0
3	2023-03-23	12:43:55	12:57:58	12:57:58:031	44	2	Reminder_Baseline_CSm	Baseline_CSm	0	5	0	0	0	0	5000	1	+	-14	4	Cue20.jpg	-14	4	Target20.jpg	-14
3	2023-03-23	12:43:55	12:58:01	12:58:01:148	44	3	Reminder_Baseline_CSm	valence	0	5	0	0	18	0	3090	1	I found these images to be...	-16	0	0	0	0	0	0
3	2023-03-23	12:43:55	12:58:03	12:58:03:715	44	4	Reminder_Baseline_CSm	expectancy	0	1000	0	0	0	0	2525	1	When you saw the <b>object-scene</b>,   to what <b>degree (0-100%)</b> did you expect the <b>unpleasant sound to occur</b>?	-10	0	0	0	0	0	0
3	2023-03-23	12:43:55	12:58:06	12:58:06:214	45	1	Reminder_Think_CSm	fixation	0	5	1500	0	0	1	1495	1	+	-15	0	0	0	0	0	0
3	2023-03-23	12:43:55	12:58:11	12:58:11:232	45	2	Reminder_Think_CSm	Think_CSm	0	5	0	0	0	0	5000	1	+	-16	3	Cue28.jpg	-16	3	Target28.jpg	-16
3	2023-03-23	12:43:55	12:58:16	12:58:16:165	45	3	Reminder_Think_CSm	valence	0	5	0	0	21	0	4914	1	I found these images to be...	-16	0	0	0	0	0	0
3	2023-03-23	12:43:55	12:58:24	12:58:24:999	45	4	Reminder_Think_CSm	expectancy	0	1500	0	0	73	0	7763	1	When you saw the <b>object-scene</b>,   to what <b>degree (0-100%)</b> did you expect the <b>unpleasant sound to occur</b>?	-12	0	0	0	0	0	0
3	2023-03-23	12:43:55	12:58:26	12:58:26:486	46	1	Reminder_Think_CSp	fixation	0	5	1000	0	0	1	995	1	+	-8	0	0	0	0	0	0
3	2023-03-23	12:43:55	12:58:31	12:58:31:502	46	2	Reminder_Think_CSp	Think_CSp	0	5	0	0	0	0	5000	1	+	-16	2	Cue8.jpg	-16	2	Target8.jpg	-16
3	2023-03-23	12:43:55	12:58:35	12:58:35:749	46	3	Reminder_Think_CSp	valence	0	5	0	0	13	0	4197	1	I found these images to be...	-16	0	0	0	0	0	0
3	2023-03-23	12:43:55	12:58:42	12:58:42:600	46	4	Reminder_Think_CSp	expectancy	0	1500	0	0	5	0	6779	1	When you saw the <b>object-scene</b>,   to what <b>degree (0-100%)</b> did you expect the <b>unpleasant sound to occur</b>?	-7	0	0	0	0	0	0
3	2023-03-23	12:43:55	12:58:44	12:58:44:587	47	1	Reminder_NoThink_CSp	fixation	0	5	500	0	0	1	495	1	+	-8	0	0	0	0	0	0
3	2023-03-23	12:43:55	12:58:49	12:58:49:603	47	2	Reminder_NoThink_CSp	NoThink_CSp	0	5	0	0	0	0	5000	1	+	-16	4	Cue29.jpg	-16	4	Target29.jpg	-16
3	2023-03-23	12:43:55	12:58:58	12:58:58:251	47	3	Reminder_NoThink_CSp	valence	0	5	0	0	35	0	8625	1	I found these images to be...	-16	0	0	0	0	0	0
3	2023-03-23	12:43:55	12:59:04	12:59:04:318	47	4	Reminder_NoThink_CSp	expectancy	0	500	0	0	9	0	5998	1	When you saw the <b>object-scene</b>,   to what <b>degree (0-100%)</b> did you expect the <b>unpleasant sound to occur</b>?	0	0	0	0	0	0	0
3	2023-03-23	12:43:55	12:59:05	12:59:05:805	48	1	Reminder_NoThink_CSp	fixation	0	5	1000	0	0	1	995	1	+	-8	0	0	0	0	0	0
3	2023-03-23	12:43:55	12:59:10	12:59:10:821	48	2	Reminder_NoThink_CSp	NoThink_CSp	0	5	0	0	0	0	5000	1	+	-16	1	Cue17.jpg	-16	1	Target17.jpg	-16
3	2023-03-23	12:43:55	12:59:14	12:59:14:385	48	3	Reminder_NoThink_CSp	valence	0	5	0	0	22	0	3511	1	I found these images to be...	-16	0	0	0	0	0	0
3	2023-03-23	12:43:55	12:59:17	12:59:17:836	48	4	Reminder_NoThink_CSp	expectancy	0	1000	0	0	3	0	3390	1	When you saw the <b>object-scene</b>,   to what <b>degree (0-100%)</b> did you expect the <b>unpleasant sound to occur</b>?	-7	0	0	0	0	0	0
3	2023-03-23	12:43:55	12:59:20	12:59:20:339	49	1	Reminder_NoThink_CSm	fixation	0	5	1500	0	0	1	1495	1	+	-8	0	0	0	0	0	0
3	2023-03-23	12:43:55	12:59:25	12:59:25:355	49	2	Reminder_NoThink_CSm	NoThink_CSm	0	5	0	0	0	0	5000	1	+	-16	3	Cue7.jpg	-16	3	Target7.jpg	-16
3	2023-03-23	12:43:55	12:59:29	12:59:29:503	49	3	Reminder_NoThink_CSm	valence	0	5	0	0	14	0	4120	1	I found these images to be...	-16	0	0	0	0	0	0
3	2023-03-23	12:43:55	12:59:34	12:59:34:620	49	4	Reminder_NoThink_CSm	expectancy	0	1500	0	0	98	0	5050	1	When you saw the <b>object-scene</b>,   to what <b>degree (0-100%)</b> did you expect the <b>unpleasant sound to occur</b>?	0	0	0	0	0	0	0
3	2023-03-23	12:43:55	13:05:33	13:05:33:01	2	1	Practice_NoThink	fixation	0	5	1000	0	0	1	995	1	+	-8	0	0	0	0	0	0
3	2023-03-23	12:43:55	13:05:34	13:05:34:018	2	2	Practice_NoThink	NoThink	0	5	0	0	0	0	1000	1	DON'T THINK	-16	0	0	0	0	0	0
3	2023-03-23	12:43:55	13:05:39	13:05:39:035	2	3	Practice_NoThink	NoThinkCue	0	5	0	0	0	1	5000	1	Cue39.jpg	-16	0	0	0	0	0	0
3	2023-03-23	12:43:55	13:05:40	13:05:40:470	2	4	Practice_NoThink	Intrusion	0	500	3000	0	80	1	1401	1	How <b>often</b> did you <b>think</b> about the <b>scene</b>?   <center><br><b>NEVER (1)    BRIEFLY (2)   OFTEN (3) </b>	-14	0	0	0	0	0	0
3	2023-03-23	12:43:55	13:05:43	13:05:43:539	3	1	Practice_Think	fixation	0	5	1500	0	0	1	1495	1	+	-16	0	0	0	0	0	0
3	2023-03-23	12:43:55	13:05:44	13:05:44:552	3	2	Practice_Think	Think	0	5	0	0	0	0	1000	1	THINK	-16	0	0	0	0	0	0
3	2023-03-23	12:43:55	13:05:49	13:05:49:569	3	3	Practice_Think	ThinkCue	0	5	0	0	0	1	5000	2	Cue38.jpg	-16	0	0	0	0	0	0
3	2023-03-23	12:43:55	13:05:51	13:05:51:062	3	4	Practice_Think	Intrusion	0	1000	3000	0	81	1	1475	1	How <b>often</b> did you <b>think</b> about the <b>scene</b>?   <center><br><b>NEVER (1)    BRIEFLY (2)   OFTEN (3) </b>	-16	0	0	0	0	0	0
3	2023-03-23	12:43:55	13:05:53	13:05:53:073	4	1	Practice_NoThink	fixation	0	5	500	0	0	1	495	1	+	-16	0	0	0	0	0	0
3	2023-03-23	12:43:55	13:05:54	13:05:54:086	4	2	Practice_NoThink	NoThink	0	5	0	0	0	0	1000	1	DON'T THINK	-16	0	0	0	0	0	0
3	2023-03-23	12:43:55	13:05:59	13:05:59:103	4	3	Practice_NoThink	NoThinkCue	0	5	0	0	0	1	5000	2	Cue40.jpg	-16	0	0	0	0	0	0
3	2023-03-23	12:43:55	13:06:00	13:06:00:534	4	4	Practice_NoThink	Intrusion	0	1500	3000	0	80	1	1414	1	How <b>often</b> did you <b>think</b> about the <b>scene</b>?   <center><br><b>NEVER (1)    BRIEFLY (2)   OFTEN (3) </b>	-16	0	0	0	0	0	0
3	2023-03-23	12:43:55	13:06:02	13:06:02:607	5	1	Practice_Think	fixation	0	5	500	0	0	1	495	1	+	-16	0	0	0	0	0	0
3	2023-03-23	12:43:55	13:06:03	13:06:03:620	5	2	Practice_Think	Think	0	5	0	0	0	0	1000	1	THINK	-16	0	0	0	0	0	0
3	2023-03-23	12:43:55	13:06:08	13:06:08:637	5	3	Practice_Think	ThinkCue	0	5	0	0	0	1	5000	1	Cue37.jpg	-16	0	0	0	0	0	0
3	2023-03-23	12:43:55	13:06:11	13:06:11:145	5	4	Practice_Think	Intrusion	0	500	3000	0	0	0	2500	1	How <b>often</b> did you <b>think</b> about the <b>scene</b>?   <center><br><b>NEVER (1)    BRIEFLY (2)   OFTEN (3) </b>	-16	0	0	0	0	0	0
3	2023-03-23	12:43:55	13:09:45	13:09:45:966	6	1	Practice_Betweenblocks1	Practice_Betweenblocks1	0	5	0	0	57	1	213278	1	<center><br><br><br><br>This is the end of the first practice round. <br><br>There will be 2 more practice rounds.  <br><br> Please await further instruction from the experimenter.	-7	0	0	0	0	0	0
3	2023-03-23	12:43:55	13:09:46	13:09:46:467	7	1	Practice_Think	fixation	0	5	1500	0	0	1	1495	1	+	-8	0	0	0	0	0	0
3	2023-03-23	12:43:55	13:09:47	13:09:47:482	7	2	Practice_Think	Think	0	5	0	0	0	0	1000	1	THINK	-16	0	0	0	0	0	0
3	2023-03-23	12:43:55	13:09:52	13:09:52:499	7	3	Practice_Think	ThinkCue	0	5	0	0	0	1	5000	2	Cue38.jpg	-16	0	0	0	0	0	0
3	2023-03-23	12:43:55	13:09:54	13:09:54:102	7	4	Practice_Think	Intrusion	0	1000	3000	0	81	1	1585	1	How <b>often</b> did you <b>think</b> about the <b>scene</b>?   <center><br><b>NEVER (1)    BRIEFLY (2)   OFTEN (3) </b>	-16	0	0	0	0	0	0
3	2023-03-23	12:43:55	13:09:56	13:09:56:503	8	1	Practice_NoThink	fixation	0	5	1000	0	0	1	995	1	+	-16	0	0	0	0	0	0
3	2023-03-23	12:43:55	13:09:57	13:09:57:517	8	2	Practice_NoThink	NoThink	0	5	0	0	0	0	1000	1	DON'T THINK	-16	0	0	0	0	0	0
3	2023-03-23	12:43:55	13:10:02	13:10:02:533	8	3	Practice_NoThink	NoThinkCue	0	5	0	0	0	1	5000	1	Cue39.jpg	-16	0	0	0	0	0	0
3	2023-03-23	12:43:55	13:10:04	13:10:04:041	8	4	Practice_NoThink	Intrusion	0	1500	3000	0	0	0	1500	1	How <b>often</b> did you <b>think</b> about the <b>scene</b>?   <center><br><b>NEVER (1)    BRIEFLY (2)   OFTEN (3) </b>	-16	0	0	0	0	0	0
3	2023-03-23	12:43:55	13:10:06	13:10:06:037	9	1	Practice_Think	fixation	0	5	500	0	0	1	495	1	+	-16	0	0	0	0	0	0
3	2023-03-23	12:43:55	13:10:07	13:10:07:050	9	2	Practice_Think	Think	0	5	0	0	0	0	1000	1	THINK	-16	0	0	0	0	0	0
3	2023-03-23	12:43:55	13:10:12	13:10:12:067	9	3	Practice_Think	ThinkCue	0	5	0	0	0	1	5000	1	Cue37.jpg	-16	0	0	0	0	0	0
3	2023-03-23	12:43:55	13:10:13	13:10:13:446	9	4	Practice_Think	Intrusion	0	500	3000	0	81	1	1361	1	How <b>often</b> did you <b>think</b> about the <b>scene</b>?   <center><br><b>NEVER (1)    BRIEFLY (2)   OFTEN (3) </b>	-16	0	0	0	0	0	0
3	2023-03-23	12:43:55	13:10:16	13:10:16:570	10	1	Practice_NoThink	fixation	0	5	1500	0	0	1	1495	1	+	-16	0	0	0	0	0	0
3	2023-03-23	12:43:55	13:10:17	13:10:17:584	10	2	Practice_NoThink	NoThink	0	5	0	0	0	0	1000	1	DON'T THINK	-16	0	0	0	0	0	0
3	2023-03-23	12:43:55	13:10:22	13:10:22:601	10	3	Practice_NoThink	NoThinkCue	0	5	0	0	0	1	5000	2	Cue40.jpg	-16	0	0	0	0	0	0
3	2023-03-23	12:43:55	13:10:23	13:10:23:686	10	4	Practice_NoThink	Intrusion	0	1000	3000	0	80	1	1068	1	How <b>often</b> did you <b>think</b> about the <b>scene</b>?   <center><br><b>NEVER (1)    BRIEFLY (2)   OFTEN (3) </b>	-16	0	0	0	0	0	0
3	2023-03-23	12:43:55	13:14:17	13:14:17:870	11	1	Practice_Betweenblocks2	Practice_Betweenblocks2	0	5	0	0	57	1	231218	1	<center><br><br><br><br>This is the end of the second practice round. <br><br>There will be 1 more practice round.  <br><br> Please await further instruction from the experimenter.	-7	0	0	0	0	0	0
3	2023-03-23	12:43:55	13:14:18	13:14:18:871	12	1	Practice_NoThink	fixation	0	5	1000	0	0	1	995	1	+	-16	0	0	0	0	0	0
3	2023-03-23	12:43:55	13:14:19	13:14:19:881	12	2	Practice_NoThink	NoThink	0	5	0	0	0	0	1000	1	DON'T THINK	-16	0	0	0	0	0	0
3	2023-03-23	12:43:55	13:14:24	13:14:24:898	12	3	Practice_NoThink	NoThinkCue	0	5	0	0	0	1	5000	1	Cue39.jpg	-16	0	0	0	0	0	0
3	2023-03-23	12:43:55	13:14:25	13:14:25:302	12	4	Practice_NoThink	Intrusion	0	1500	3000	0	79	1	1386	1	How <b>often</b> did you <b>think</b> about the <b>scene</b>?   <center><br><b>NEVER (1)    BRIEFLY (2)   OFTEN (3) </b>	-16	0	0	0	0	0	0
3	2023-03-23	12:43:55	13:14:28	13:14:28:402	13	1	Practice_Think	fixation	0	5	1500	0	0	1	1495	1	+	-16	0	0	0	0	0	0
3	2023-03-23	12:43:55	13:14:29	13:14:29:415	13	2	Practice_Think	Think	0	5	0	0	0	0	1000	1	THINK	-16	0	0	0	0	0	0
3	2023-03-23	12:43:55	13:14:34	13:14:34:432	13	3	Practice_Think	ThinkCue	0	5	0	0	0	1	5000	2	Cue38.jpg	-16	0	0	0	0	0	0
3	2023-03-23	12:43:55	13:14:35	13:14:35:478	13	4	Practice_Think	Intrusion	0	1500	3000	0	81	1	1029	1	How <b>often</b> did you <b>think</b> about the <b>scene</b>?   <center><br><b>NEVER (1)    BRIEFLY (2)   OFTEN (3) </b>	-16	0	0	0	0	0	0
3	2023-03-23	12:43:55	13:14:38	13:14:38:936	14	1	Practice_NoThink	fixation	0	5	500	0	0	1	495	1	+	-16	0	0	0	0	0	0
3	2023-03-23	12:43:55	13:14:39	13:14:39:949	14	2	Practice_NoThink	NoThink	0	5	0	0	0	0	1000	1	DON'T THINK	-16	0	0	0	0	0	0
3	2023-03-23	12:43:55	13:14:44	13:14:44:965	14	3	Practice_NoThink	NoThinkCue	0	5	0	0	0	1	5000	2	Cue40.jpg	-16	0	0	0	0	0	0
3	2023-03-23	12:43:55	13:14:46	13:14:46:830	14	4	Practice_NoThink	Intrusion	0	500	3000	0	79	1	1847	1	How <b>often</b> did you <b>think</b> about the <b>scene</b>?   <center><br><b>NEVER (1)    BRIEFLY (2)   OFTEN (3) </b>	-16	0	0	0	0	0	0
3	2023-03-23	12:43:55	13:14:48	13:14:48:969	15	1	Practice_Think	fixation	0	5	1000	0	0	1	995	1	+	-8	0	0	0	0	0	0
3	2023-03-23	12:43:55	13:14:49	13:14:49:983	15	2	Practice_Think	Think	0	5	0	0	0	0	1000	1	THINK	-16	0	0	0	0	0	0
3	2023-03-23	12:43:55	13:14:54	13:14:54:00	15	3	Practice_Think	ThinkCue	0	5	0	0	0	1	5000	1	Cue37.jpg	-16	0	0	0	0	0	0
3	2023-03-23	12:43:55	13:14:55	13:14:55:654	15	4	Practice_Think	Intrusion	0	1000	3000	0	81	1	1637	1	How <b>often</b> did you <b>think</b> about the <b>scene</b>?   <center><br><b>NEVER (1)    BRIEFLY (2)   OFTEN (3) </b>	-16	0	0	0	0	0	0
3	2023-03-23	12:43:55	13:18:32	13:18:32:02	2	1	TNT_Think_CSm	fixation	0	5	1000	0	0	1	995	1	+	-8	0	0	0	0	0	0
3	2023-03-23	12:43:55	13:18:33	13:18:33:019	2	2	TNT_Think_CSm	Think	0	5	0	0	0	0	1000	1	THINK	-16	0	0	0	0	0	0
3	2023-03-23	12:43:55	13:18:38	13:18:38:036	2	3	TNT_Think_CSm	TNT_Think_CSm	0	5	0	0	0	0	5000	3	Cue28.jpg	-16	0	0	0	0	0	0
3	2023-03-23	12:43:55	13:18:38	13:18:38:498	2	4	TNT_Think_CSm	Intrusion	0	500	3000	0	81	1	444	1	How <b>often</b> did you <b>think</b> about the <b>scene</b>?   <center><br><b>NEVER (1)    BRIEFLY (2)   OFTEN (3) </b>	-16	0	0	0	0	0	0
3	2023-03-23	12:43:55	13:18:42	13:18:42:540	3	1	TNT_NoThink_CSm	fixation	0	5	1500	0	0	1	1495	1	+	-16	0	0	0	0	0	0
3	2023-03-23	12:43:55	13:18:43	13:18:43:553	3	2	TNT_NoThink_CSm	NoThink	0	5	0	0	0	0	1000	1	DON'T THINK	-16	0	0	0	0	0	0
3	2023-03-23	12:43:55	13:18:48	13:18:48:570	3	3	TNT_NoThink_CSm	TNT_NoThink_CSm	0	5	0	0	0	0	5000	5	Cue3.jpg	-16	0	0	0	0	0	0
3	2023-03-23	12:43:55	13:18:49	13:18:49:330	3	4	TNT_NoThink_CSm	Intrusion	0	1500	3000	0	79	1	742	1	How <b>often</b> did you <b>think</b> about the <b>scene</b>?   <center><br><b>NEVER (1)    BRIEFLY (2)   OFTEN (3) </b>	-16	0	0	0	0	0	0
3	2023-03-23	12:43:55	13:18:52	13:18:52:074	4	1	TNT_NoThink_CSm	fixation	0	5	500	0	0	1	495	1	+	-8	0	0	0	0	0	0
3	2023-03-23	12:43:55	13:18:53	13:18:53:087	4	2	TNT_NoThink_CSm	NoThink	0	5	0	0	0	0	1000	1	DON'T THINK	-16	0	0	0	0	0	0
3	2023-03-23	12:43:55	13:18:58	13:18:58:104	4	3	TNT_NoThink_CSm	TNT_NoThink_CSm	0	5	0	0	0	0	5000	4	Cue30.jpg	-16	0	0	0	0	0	0
3	2023-03-23	12:43:55	13:18:59	13:18:59:041	4	4	TNT_NoThink_CSm	Intrusion	0	1000	3000	0	80	1	921	1	How <b>often</b> did you <b>think</b> about the <b>scene</b>?   <center><br><b>NEVER (1)    BRIEFLY (2)   OFTEN (3) </b>	-16	0	0	0	0	0	0
3	2023-03-23	12:43:55	13:19:01	13:19:01:608	5	1	TNT_Think_CSp	fixation	0	5	500	0	0	1	495	1	+	-16	0	0	0	0	0	0
3	2023-03-23	12:43:55	13:19:02	13:19:02:621	5	2	TNT_Think_CSp	Think	0	5	0	0	0	0	1000	1	THINK	-16	0	0	0	0	0	0
3	2023-03-23	12:43:55	13:19:07	13:19:07:638	5	3	TNT_Think_CSp	TNT_Think_CSp	0	5	0	0	0	0	5000	6	Cue11.jpg	-16	0	0	0	0	0	0
3	2023-03-23	12:43:55	13:19:08	13:19:08:721	5	4	TNT_Think_CSp	Intrusion	0	1000	3000	0	81	1	1067	1	How <b>often</b> did you <b>think</b> about the <b>scene</b>?   <center><br><b>NEVER (1)    BRIEFLY (2)   OFTEN (3) </b>	-16	0	0	0	0	0	0
3	2023-03-23	12:43:55	13:19:12	13:19:12:142	6	1	TNT_NoThink_CSp	fixation	0	5	1500	0	0	1	1495	1	+	-16	0	0	0	0	0	0
3	2023-03-23	12:43:55	13:19:13	13:19:13:155	6	2	TNT_NoThink_CSp	NoThink	0	5	0	0	0	0	1000	1	DON'T THINK	-16	0	0	0	0	0	0
3	2023-03-23	12:43:55	13:19:18	13:19:18:172	6	3	TNT_NoThink_CSp	TNT_NoThink_CSp	0	5	0	0	0	0	5000	1	Cue17.jpg	-16	0	0	0	0	0	0
3	2023-03-23	12:43:55	13:19:19	13:19:19:106	6	4	TNT_NoThink_CSp	Intrusion	0	1500	3000	0	79	1	917	1	How <b>often</b> did you <b>think</b> about the <b>scene</b>?   <center><br><b>NEVER (1)    BRIEFLY (2)   OFTEN (3) </b>	-16	0	0	0	0	0	0
3	2023-03-23	12:43:55	13:19:22	13:19:22:176	7	1	TNT_NoThink_CSm	fixation	0	5	1000	0	0	1	995	1	+	-16	0	0	0	0	0	0
3	2023-03-23	12:43:55	13:19:23	13:19:23:189	7	2	TNT_NoThink_CSm	NoThink	0	5	0	0	0	0	1000	1	DON'T THINK	-16	0	0	0	0	0	0
3	2023-03-23	12:43:55	13:19:28	13:19:28:206	7	3	TNT_NoThink_CSm	TNT_NoThink_CSm	0	5	0	0	0	0	5000	1	Cue32.jpg	-16	0	0	0	0	0	0
3	2023-03-23	12:43:55	13:19:29	13:19:29:945	7	4	TNT_NoThink_CSm	Intrusion	0	500	3000	0	80	1	723	1	How <b>often</b> did you <b>think</b> about the <b>scene</b>?   <center><br><b>NEVER (1)    BRIEFLY (2)   OFTEN (3) </b>	-16	0	0	0	0	0	0
3	2023-03-23	12:43:55	13:19:31	13:19:31:709	8	1	TNT_Think_CSm	fixation	0	5	500	0	0	1	495	1	+	-16	0	0	0	0	0	0
3	2023-03-23	12:43:55	13:19:32	13:19:32:722	8	2	TNT_Think_CSm	Think	0	5	0	0	0	0	1000	1	THINK	-16	0	0	0	0	0	0
3	2023-03-23	12:43:55	13:19:37	13:19:37:739	8	3	TNT_Think_CSm	TNT_Think_CSm	0	5	0	0	0	0	5000	5	Cue26.jpg	-16	0	0	0	0	0	0
3	2023-03-23	12:43:55	13:19:38	13:19:38:561	8	4	TNT_Think_CSm	Intrusion	0	1000	3000	0	81	1	805	1	How <b>often</b> did you <b>think</b> about the <b>scene</b>?   <center><br><b>NEVER (1)    BRIEFLY (2)   OFTEN (3) </b>	-16	0	0	0	0	0	0
3	2023-03-23	12:43:55	13:19:42	13:19:42:243	9	1	TNT_NoThink_CSp	fixation	0	5	1500	0	0	1	1495	1	+	-16	0	0	0	0	0	0
3	2023-03-23	12:43:55	13:19:43	13:19:43:257	9	2	TNT_NoThink_CSp	NoThink	0	5	0	0	0	0	1000	1	DON'T THINK	-16	0	0	0	0	0	0
3	2023-03-23	12:43:55	13:19:48	13:19:48:273	9	3	TNT_NoThink_CSp	TNT_NoThink_CSp	0	5	0	0	0	0	5000	4	Cue29.jpg	-16	0	0	0	0	0	0
3	2023-03-23	12:43:55	13:19:48	13:19:48:817	9	4	TNT_NoThink_CSp	Intrusion	0	1500	3000	0	80	1	527	1	How <b>often</b> did you <b>think</b> about the <b>scene</b>?   <center><br><b>NEVER (1)    BRIEFLY (2)   OFTEN (3) </b>	-16	0	0	0	0	0	0
3	2023-03-23	12:43:55	13:19:52	13:19:52:277	10	1	TNT_Think_CSp	fixation	0	5	1000	0	0	1	995	1	+	-16	0	0	0	0	0	0
3	2023-03-23	12:43:55	13:19:53	13:19:53:290	10	2	TNT_Think_CSp	Think	0	5	0	0	0	0	1000	1	THINK	-16	0	0	0	0	0	0
3	2023-03-23	12:43:55	13:19:58	13:19:58:307	10	3	TNT_Think_CSp	TNT_Think_CSp	0	5	0	0	0	0	5000	1	Cue6.jpg	-16	0	0	0	0	0	0
3	2023-03-23	12:43:55	13:19:59	13:19:59:089	10	4	TNT_Think_CSp	Intrusion	0	500	3000	0	81	1	765	1	How <b>often</b> did you <b>think</b> about the <b>scene</b>?   <center><br><b>NEVER (1)    BRIEFLY (2)   OFTEN (3) </b>	-16	0	0	0	0	0	0
3	2023-03-23	12:43:55	13:20:01	13:20:01:811	11	1	TNT_Object_CSp	fixation	0	5	500	0	0	1	495	1	+	-16	0	0	0	0	0	0
3	2023-03-23	12:43:55	13:20:02	13:20:02:824	11	2	TNT_Object_CSp	Passive	0	5	0	0	0	0	1000	1	VIEW	-16	0	0	0	0	0	0
3	2023-03-23	12:43:55	13:20:07	13:20:07:841	11	3	TNT_Object_CSp	TNT_Object_CSp	0	1000	0	0	0	0	5000	4	Object1.jpg	-16	0	0	0	0	0	0
3	2023-03-23	12:43:55	13:20:09	13:20:09:840	12	1	TNT_NoThink_CSm	fixation	0	5	1000	0	0	1	995	1	+	-7	0	0	0	0	0	0
3	2023-03-23	12:43:55	13:20:10	13:20:10:858	12	2	TNT_NoThink_CSm	NoThink	0	5	0	0	0	0	1000	1	DON'T THINK	-16	0	0	0	0	0	0
3	2023-03-23	12:43:55	13:20:15	13:20:15:875	12	3	TNT_NoThink_CSm	TNT_NoThink_CSm	0	5	0	0	0	0	5000	3	Cue7.jpg	-16	0	0	0	0	0	0
3	2023-03-23	12:43:55	13:20:16	13:20:16:658	12	4	TNT_NoThink_CSm	Intrusion	0	1500	3000	0	79	1	765	1	How <b>often</b> did you <b>think</b> about the <b>scene</b>?   <center><br><b>NEVER (1)    BRIEFLY (2)   OFTEN (3) </b>	-16	0	0	0	0	0	0
3	2023-03-23	12:43:55	13:20:20	13:20:20:379	13	1	TNT_Object_CSm	fixation	0	5	1500	0	0	1	1495	1	+	-16	0	0	0	0	0	0
3	2023-03-23	12:43:55	13:20:21	13:20:21:392	13	2	TNT_Object_CSm	Passive	0	5	0	0	0	0	1000	1	VIEW	-16	0	0	0	0	0	0
3	2023-03-23	12:43:55	13:20:26	13:20:26:409	13	3	TNT_Object_CSm	TNT_Object_CSm	0	1000	0	0	0	0	5000	3	Object3.jpg	-16	0	0	0	0	0	0
3	2023-03-23	12:43:55	13:20:28	13:20:28:408	14	1	TNT_NoThink_CSp	fixation	0	5	1000	0	0	1	995	1	+	-8	0	0	0	0	0	0
3	2023-03-23	12:43:55	13:20:29	13:20:29:426	14	2	TNT_NoThink_CSp	NoThink	0	5	0	0	0	0	1000	1	DON'T THINK	-16	0	0	0	0	0	0
3	2023-03-23	12:43:55	13:20:34	13:20:34:443	14	3	TNT_NoThink_CSp	TNT_NoThink_CSp	0	5	0	0	0	0	5000	3	Cue21.jpg	-16	0	0	0	0	0	0
3	2023-03-23	12:43:55	13:20:35	13:20:35:761	14	4	TNT_NoThink_CSp	Intrusion	0	1000	3000	0	79	1	1302	1	How <b>often</b> did you <b>think</b> about the <b>scene</b>?   <center><br><b>NEVER (1)    BRIEFLY (2)   OFTEN (3) </b>	-16	0	0	0	0	0	0
3	2023-03-23	12:43:55	13:20:39	13:20:39:947	15	1	TNT_Think_CSp	fixation	0	5	1500	0	0	1	1495	1	+	-16	0	0	0	0	0	0
3	2023-03-23	12:43:55	13:20:40	13:20:40:960	15	2	TNT_Think_CSp	Think	0	5	0	0	0	0	1000	1	THINK	-16	0	0	0	0	0	0
3	2023-03-23	12:43:55	13:20:45	13:20:45:976	15	3	TNT_Think_CSp	TNT_Think_CSp	0	5	0	0	0	0	5000	4	Cue12.jpg	-16	0	0	0	0	0	0
3	2023-03-23	12:43:55	13:20:46	13:20:46:921	15	4	TNT_Think_CSp	Intrusion	0	500	3000	0	81	1	928	1	How <b>often</b> did you <b>think</b> about the <b>scene</b>?   <center><br><b>NEVER (1)    BRIEFLY (2)   OFTEN (3) </b>	-16	0	0	0	0	0	0
3	2023-03-23	12:43:55	13:20:48	13:20:48:480	16	1	TNT_Think_CSm	fixation	0	5	500	0	0	1	495	1	+	-16	0	0	0	0	0	0
3	2023-03-23	12:43:55	13:20:49	13:20:49:493	16	2	TNT_Think_CSm	Think	0	5	0	0	0	0	1000	1	THINK	-16	0	0	0	0	0	0
3	2023-03-23	12:43:55	13:20:54	13:20:54:510	16	3	TNT_Think_CSm	TNT_Think_CSm	0	5	0	0	0	0	5000	2	Cue35.jpg	-16	0	0	0	0	0	0
3	2023-03-23	12:43:55	13:20:55	13:20:55:858	16	4	TNT_Think_CSm	Intrusion	0	1500	3000	0	81	1	1330	1	How <b>often</b> did you <b>think</b> about the <b>scene</b>?   <center><br><b>NEVER (1)    BRIEFLY (2)   OFTEN (3) </b>	-16	0	0	0	0	0	0
3	2023-03-23	12:43:55	13:20:58	13:20:58:514	17	1	TNT_Think_CSp	fixation	0	5	1000	0	0	1	995	1	+	-16	0	0	0	0	0	0
3	2023-03-23	12:43:55	13:20:59	13:20:59:527	17	2	TNT_Think_CSp	Think	0	5	0	0	0	0	1000	1	THINK	-16	0	0	0	0	0	0
3	2023-03-23	12:43:55	13:21:04	13:21:04:544	17	3	TNT_Think_CSp	TNT_Think_CSp	0	5	0	0	0	0	5000	2	Cue8.jpg	-16	0	0	0	0	0	0
3	2023-03-23	12:43:55	13:21:05	13:21:05:153	17	4	TNT_Think_CSp	Intrusion	0	500	3000	0	81	1	592	1	How <b>often</b> did you <b>think</b> about the <b>scene</b>?   <center><br><b>NEVER (1)    BRIEFLY (2)   OFTEN (3) </b>	-16	0	0	0	0	0	0
3	2023-03-23	12:43:55	13:21:09	13:21:09:048	18	1	TNT_NoThink_CSm	fixation	0	5	1500	0	0	1	1495	1	+	-16	0	0	0	0	0	0
3	2023-03-23	12:43:55	13:21:10	13:21:10:061	18	2	TNT_NoThink_CSm	NoThink	0	5	0	0	0	0	1000	1	DON'T THINK	-16	0	0	0	0	0	0
3	2023-03-23	12:43:55	13:21:15	13:21:15:078	18	3	TNT_NoThink_CSm	TNT_NoThink_CSm	0	5	0	0	0	0	5000	6	Cue4.jpg	-16	0	0	0	0	0	0
3	2023-03-23	12:43:55	13:21:16	13:21:16:257	18	4	TNT_NoThink_CSm	Intrusion	0	1000	3000	0	79	1	1162	1	How <b>often</b> did you <b>think</b> about the <b>scene</b>?   <center><br><b>NEVER (1)    BRIEFLY (2)   OFTEN (3) </b>	-16	0	0	0	0	0	0
3	2023-03-23	12:43:55	13:21:18	13:21:18:582	19	1	TNT_Think_CSm	fixation	0	5	500	0	0	1	495	1	+	-16	0	0	0	0	0	0
3	2023-03-23	12:43:55	13:21:19	13:21:19:595	19	2	TNT_Think_CSm	Think	0	5	0	0	0	0	1000	1	THINK	-16	0	0	0	0	0	0
3	2023-03-23	12:43:55	13:21:24	13:21:24:612	19	3	TNT_Think_CSm	TNT_Think_CSm	0	5	0	0	0	0	5000	1	Cue15.jpg	-16	0	0	0	0	0	0
3	2023-03-23	12:43:55	13:21:25	13:21:25:905	19	4	TNT_Think_CSm	Intrusion	0	500	3000	0	81	1	1276	1	How <b>often</b> did you <b>think</b> about the <b>scene</b>?   <center><br><b>NEVER (1)    BRIEFLY (2)   OFTEN (3) </b>	-16	0	0	0	0	0	0
3	2023-03-23	12:43:55	13:21:29	13:21:29:116	20	1	TNT_Object_CSm	fixation	0	5	1500	0	0	1	1495	1	+	-16	0	0	0	0	0	0
3	2023-03-23	12:43:55	13:21:30	13:21:30:129	20	2	TNT_Object_CSm	Passive	0	5	0	0	0	0	1000	1	VIEW	-16	0	0	0	0	0	0
3	2023-03-23	12:43:55	13:21:35	13:21:35:146	20	3	TNT_Object_CSm	TNT_Object_CSm	0	1500	0	0	0	0	5000	4	Object6.jpg	-16	0	0	0	0	0	0
3	2023-03-23	12:43:55	13:21:37	13:21:37:645	21	1	TNT_Think_CSm	fixation	0	5	1000	0	0	1	995	1	+	-8	0	0	0	0	0	0
3	2023-03-23	12:43:55	13:21:38	13:21:38:663	21	2	TNT_Think_CSm	Think	0	5	0	0	0	0	1000	1	THINK	-16	0	0	0	0	0	0
3	2023-03-23	12:43:55	13:21:43	13:21:43:680	21	3	TNT_Think_CSm	TNT_Think_CSm	0	5	0	0	0	0	5000	6	Cue23.jpg	-16	0	0	0	0	0	0
3	2023-03-23	12:43:55	13:21:44	13:21:44:289	21	4	TNT_Think_CSm	Intrusion	0	1500	3000	0	81	1	593	1	How <b>often</b> did you <b>think</b> about the <b>scene</b>?   <center><br><b>NEVER (1)    BRIEFLY (2)   OFTEN (3) </b>	-16	0	0	0	0	0	0
3	2023-03-23	12:43:55	13:21:47	13:21:47:183	22	1	TNT_NoThink_CSp	fixation	0	5	500	0	0	1	495	1	+	-8	0	0	0	0	0	0
3	2023-03-23	12:43:55	13:21:48	13:21:48:197	22	2	TNT_NoThink_CSp	NoThink	0	5	0	0	0	0	1000	1	DON'T THINK	-16	0	0	0	0	0	0
3	2023-03-23	12:43:55	13:21:53	13:21:53:213	22	3	TNT_NoThink_CSp	TNT_NoThink_CSp	0	5	0	0	0	0	5000	5	Cue22.jpg	-16	0	0	0	0	0	0
3	2023-03-23	12:43:55	13:21:53	13:21:53:809	22	4	TNT_NoThink_CSp	Intrusion	0	1000	3000	0	79	1	579	1	How <b>often</b> did you <b>think</b> about the <b>scene</b>?   <center><br><b>NEVER (1)    BRIEFLY (2)   OFTEN (3) </b>	-16	0	0	0	0	0	0
3	2023-03-23	12:43:55	13:21:56	13:21:56:717	23	1	TNT_Object_CSm	fixation	0	5	500	0	0	1	495	1	+	-16	0	0	0	0	0	0
3	2023-03-23	12:43:55	13:21:57	13:21:57:731	23	2	TNT_Object_CSm	Passive	0	5	0	0	0	0	1000	1	VIEW	-16	0	0	0	0	0	0
3	2023-03-23	12:43:55	13:22:02	13:22:02:748	23	3	TNT_Object_CSm	TNT_Object_CSm	0	500	0	0	0	0	5000	2	Object5.jpg	-16	0	0	0	0	0	0
3	2023-03-23	12:43:55	13:22:04	13:22:04:247	24	1	TNT_NoThink_CSm	fixation	0	5	1000	0	0	1	995	1	+	-8	0	0	0	0	0	0
3	2023-03-23	12:43:55	13:22:05	13:22:05:265	24	2	TNT_NoThink_CSm	NoThink	0	5	0	0	0	0	1000	1	DON'T THINK	-16	0	0	0	0	0	0
3	2023-03-23	12:43:55	13:22:10	13:22:10:281	24	3	TNT_NoThink_CSm	TNT_NoThink_CSm	0	5	0	0	0	0	5000	2	Cue16.jpg	-16	0	0	0	0	0	0
3	2023-03-23	12:43:55	13:22:11	13:22:11:073	24	4	TNT_NoThink_CSm	Intrusion	0	500	3000	0	79	1	775	1	How <b>often</b> did you <b>think</b> about the <b>scene</b>?   <center><br><b>NEVER (1)    BRIEFLY (2)   OFTEN (3) </b>	-16	0	0	0	0	0	0
3	2023-03-23	12:43:55	13:22:14	13:22:14:785	25	1	TNT_Object_CSm	fixation	0	5	1500	0	0	1	1495	1	+	-16	0	0	0	0	0	0
3	2023-03-23	12:43:55	13:22:15	13:22:15:798	25	2	TNT_Object_CSm	Passive	0	5	0	0	0	0	1000	1	VIEW	-16	0	0	0	0	0	0
3	2023-03-23	12:43:55	13:22:20	13:22:20:815	25	3	TNT_Object_CSm	TNT_Object_CSm	0	1500	0	0	0	0	5000	1	Object7.jpg	-16	0	0	0	0	0	0
3	2023-03-23	12:43:55	13:22:22	13:22:22:813	26	1	TNT_Think_CSp	fixation	0	5	500	0	0	1	495	1	+	-5	0	0	0	0	0	0
3	2023-03-23	12:43:55	13:22:23	13:22:23:830	26	2	TNT_Think_CSp	Think	0	5	0	0	0	0	1000	1	THINK	-16	0	0	0	0	0	0
3	2023-03-23	12:43:55	13:22:28	13:22:28:847	26	3	TNT_Think_CSp	TNT_Think_CSp	0	5	0	0	0	0	5000	3	Cue10.jpg	-16	0	0	0	0	0	0
3	2023-03-23	12:43:55	13:22:30	13:22:30:063	26	4	TNT_Think_CSp	Intrusion	0	1000	3000	0	81	1	1200	1	How <b>often</b> did you <b>think</b> about the <b>scene</b>?   <center><br><b>NEVER (1)    BRIEFLY (2)   OFTEN (3) </b>	-16	0	0	0	0	0	0
3	2023-03-23	12:43:55	13:22:33	13:22:33:352	27	1	TNT_Think_CSm	fixation	0	5	1500	0	0	1	1495	1	+	-16	0	0	0	0	0	0
3	2023-03-23	12:43:55	13:22:34	13:22:34:366	27	2	TNT_Think_CSm	Think	0	5	0	0	0	0	1000	1	THINK	-16	0	0	0	0	0	0
3	2023-03-23	12:43:55	13:22:39	13:22:39:383	27	3	TNT_Think_CSm	TNT_Think_CSm	0	5	0	0	0	0	5000	4	Cue18.jpg	-16	0	0	0	0	0	0
3	2023-03-23	12:43:55	13:22:40	13:22:40:321	27	4	TNT_Think_CSm	Intrusion	0	1500	3000	0	81	1	922	1	How <b>often</b> did you <b>think</b> about the <b>scene</b>?   <center><br><b>NEVER (1)    BRIEFLY (2)   OFTEN (3) </b>	-16	0	0	0	0	0	0
3	2023-03-23	12:43:55	13:22:43	13:22:43:387	28	1	TNT_NoThink_CSp	fixation	0	5	1000	0	0	1	995	1	+	-16	0	0	0	0	0	0
3	2023-03-23	12:43:55	13:22:44	13:22:44:400	28	2	TNT_NoThink_CSp	NoThink	0	5	0	0	0	0	1000	1	DON'T THINK	-16	0	0	0	0	0	0
3	2023-03-23	12:43:55	13:22:49	13:22:49:416	28	3	TNT_NoThink_CSp	TNT_NoThink_CSp	0	5	0	0	0	0	5000	6	Cue9.jpg	-16	0	0	0	0	0	0
3	2023-03-23	12:43:55	13:22:50	13:22:50:577	28	4	TNT_NoThink_CSp	Intrusion	0	1500	3000	0	79	1	1144	1	How <b>often</b> did you <b>think</b> about the <b>scene</b>?   <center><br><b>NEVER (1)    BRIEFLY (2)   OFTEN (3) </b>	-16	0	0	0	0	0	0
3	2023-03-23	12:43:55	13:22:54	13:22:54:920	29	1	TNT_Think_CSp	fixation	0	5	1500	0	0	1	1495	1	+	-8	0	0	0	0	0	0
3	2023-03-23	12:43:55	13:22:55	13:22:55:934	29	2	TNT_Think_CSp	Think	0	5	0	0	0	0	1000	1	THINK	-16	0	0	0	0	0	0
3	2023-03-23	12:43:55	13:23:00	13:23:00:951	29	3	TNT_Think_CSp	TNT_Think_CSp	0	5	0	0	0	0	5000	5	Cue24.jpg	-16	0	0	0	0	0	0
3	2023-03-23	12:43:55	13:23:00	13:23:00:721	29	4	TNT_Think_CSp	Intrusion	0	1000	3000	0	81	1	754	1	How <b>often</b> did you <b>think</b> about the <b>scene</b>?   <center><br><b>NEVER (1)    BRIEFLY (2)   OFTEN (3) </b>	-16	0	0	0	0	0	0
3	2023-03-23	12:43:55	13:23:03	13:23:03:455	30	1	TNT_Object_CSp	fixation	0	5	500	0	0	1	495	1	+	-16	0	0	0	0	0	0
3	2023-03-23	12:43:55	13:23:04	13:23:04:467	30	2	TNT_Object_CSp	Passive	0	5	0	0	0	0	1000	1	VIEW	-16	0	0	0	0	0	0
3	2023-03-23	12:43:55	13:23:09	13:23:09:485	30	3	TNT_Object_CSp	TNT_Object_CSp	0	500	0	0	0	0	5000	3	Object4.jpg	-16	0	0	0	0	0	0
3	2023-03-23	12:43:55	13:23:11	13:23:11:984	31	1	TNT_Object_CSp	fixation	0	5	1000	0	0	1	995	1	+	-8	0	0	0	0	0	0
3	2023-03-23	12:43:55	13:23:12	13:23:12:01	31	2	TNT_Object_CSp	Passive	0	5	0	0	0	0	1000	1	VIEW	-16	0	0	0	0	0	0
3	2023-03-23	12:43:55	13:23:17	13:23:17:018	31	3	TNT_Object_CSp	TNT_Object_CSp	0	1500	0	0	0	0	5000	1	Object8.jpg	-16	0	0	0	0	0	0
3	2023-03-23	12:43:55	13:23:19	13:23:19:517	32	1	TNT_NoThink_CSp	fixation	0	5	1000	0	0	1	995	1	+	-8	0	0	0	0	0	0
3	2023-03-23	12:43:55	13:23:20	13:23:20:535	32	2	TNT_NoThink_CSp	NoThink	0	5	0	0	0	0	1000	1	DON'T THINK	-16	0	0	0	0	0	0
3	2023-03-23	12:43:55	13:23:25	13:23:25:552	32	3	TNT_NoThink_CSp	TNT_NoThink_CSp	0	5	0	0	0	0	5000	2	Cue34.jpg	-16	0	0	0	0	0	0
3	2023-03-23	12:43:55	13:23:26	13:23:26:401	32	4	TNT_NoThink_CSp	Intrusion	0	500	3000	0	80	1	832	1	How <b>often</b> did you <b>think</b> about the <b>scene</b>?   <center><br><b>NEVER (1)    BRIEFLY (2)   OFTEN (3) </b>	-16	0	0	0	0	0	0
3	2023-03-23	12:43:55	13:23:29	13:23:29:055	33	1	TNT_Object_CSp	fixation	0	5	500	0	0	1	495	1	+	-16	0	0	0	0	0	0
3	2023-03-23	12:43:55	13:23:30	13:23:30:069	33	2	TNT_Object_CSp	Passive	0	5	0	0	0	0	1000	1	VIEW	-16	0	0	0	0	0	0
3	2023-03-23	12:43:55	13:23:35	13:23:35:086	33	3	TNT_Object_CSp	TNT_Object_CSp	0	1000	0	0	0	0	5000	2	Object2.jpg	-16	0	0	0	0	0	0
3	2023-03-23	12:43:55	13:23:37	13:23:37:585	34	1	TNT_NoThink_CSm	fixation	0	5	1500	0	0	1	1495	1	+	-8	0	0	0	0	0	0
3	2023-03-23	12:43:55	13:23:38	13:23:38:603	34	2	TNT_NoThink_CSm	NoThink	0	5	0	0	0	0	1000	1	DON'T THINK	-16	0	0	0	0	0	0
3	2023-03-23	12:43:55	13:23:43	13:23:43:620	34	3	TNT_NoThink_CSm	TNT_NoThink_CSm	0	5	0	0	0	0	5000	6	Cue4.jpg	-16	0	0	0	0	0	0
3	2023-03-23	12:43:55	13:23:45	13:23:45:961	34	4	TNT_NoThink_CSm	Intrusion	0	1000	3000	0	80	1	1324	1	How <b>often</b> did you <b>think</b> about the <b>scene</b>?   <center><br><b>NEVER (1)    BRIEFLY (2)   OFTEN (3) </b>	-16	0	0	0	0	0	0
3	2023-03-23	12:43:55	13:23:47	13:23:47:624	35	1	TNT_Think_CSm	fixation	0	5	1000	0	0	1	995	1	+	-16	0	0	0	0	0	0
3	2023-03-23	12:43:55	13:23:48	13:23:48:637	35	2	TNT_Think_CSm	Think	0	5	0	0	0	0	1000	1	THINK	-16	0	0	0	0	0	0
3	2023-03-23	12:43:55	13:23:53	13:23:53:653	35	3	TNT_Think_CSm	TNT_Think_CSm	0	5	0	0	0	0	5000	1	Cue15.jpg	-16	0	0	0	0	0	0
3	2023-03-23	12:43:55	13:23:55	13:23:55:041	35	4	TNT_Think_CSm	Intrusion	0	1500	3000	0	81	1	1371	1	How <b>often</b> did you <b>think</b> about the <b>scene</b>?   <center><br><b>NEVER (1)    BRIEFLY (2)   OFTEN (3) </b>	-16	0	0	0	0	0	0
3	2023-03-23	12:43:55	13:23:58	13:23:58:157	36	1	TNT_NoThink_CSm	fixation	0	5	1500	0	0	1	1495	1	+	-8	0	0	0	0	0	0
3	2023-03-23	12:43:55	13:23:59	13:23:59:171	36	2	TNT_NoThink_CSm	NoThink	0	5	0	0	0	0	1000	1	DON'T THINK	-16	0	0	0	0	0	0
3	2023-03-23	12:43:55	13:24:04	13:24:04:188	36	3	TNT_NoThink_CSm	TNT_NoThink_CSm	0	5	0	0	0	0	5000	5	Cue3.jpg	-16	0	0	0	0	0	0
3	2023-03-23	12:43:55	13:24:04	13:24:04:785	36	4	TNT_NoThink_CSm	Intrusion	0	500	3000	0	80	1	581	1	How <b>often</b> did you <b>think</b> about the <b>scene</b>?   <center><br><b>NEVER (1)    BRIEFLY (2)   OFTEN (3) </b>	-16	0	0	0	0	0	0
3	2023-03-23	12:43:55	13:24:07	13:24:07:692	37	1	TNT_Object_CSp	fixation	0	5	500	0	0	1	495	1	+	-16	0	0	0	0	0	0
3	2023-03-23	12:43:55	13:24:08	13:24:08:704	37	2	TNT_Object_CSp	Passive	0	5	0	0	0	0	1000	1	VIEW	-16	0	0	0	0	0	0
3	2023-03-23	12:43:55	13:24:13	13:24:13:721	37	3	TNT_Object_CSp	TNT_Object_CSp	0	1500	0	0	0	0	5000	1	Object8.jpg	-16	0	0	0	0	0	0
3	2023-03-23	12:43:55	13:24:16	13:24:16:721	38	1	TNT_NoThink_CSp	fixation	0	5	1500	0	0	1	1495	1	+	-8	0	0	0	0	0	0
3	2023-03-23	12:43:55	13:24:17	13:24:17:738	38	2	TNT_NoThink_CSp	NoThink	0	5	0	0	0	0	1000	1	DON'T THINK	-16	0	0	0	0	0	0
3	2023-03-23	12:43:55	13:24:22	13:24:22:755	38	3	TNT_NoThink_CSp	TNT_NoThink_CSp	0	5	0	0	0	0	5000	5	Cue22.jpg	-16	0	0	0	0	0	0
3	2023-03-23	12:43:55	13:24:23	13:24:23:841	38	4	TNT_NoThink_CSp	Intrusion	0	1500	3000	0	79	1	1069	1	How <b>often</b> did you <b>think</b> about the <b>scene</b>?   <center><br><b>NEVER (1)    BRIEFLY (2)   OFTEN (3) </b>	-16	0	0	0	0	0	0
3	2023-03-23	12:43:55	13:24:26	13:24:26:259	39	1	TNT_NoThink_CSp	fixation	0	5	500	0	0	1	495	1	+	-16	0	0	0	0	0	0
3	2023-03-23	12:43:55	13:24:27	13:24:27:273	39	2	TNT_NoThink_CSp	NoThink	0	5	0	0	0	0	1000	1	DON'T THINK	-16	0	0	0	0	0	0
3	2023-03-23	12:43:55	13:24:32	13:24:32:289	39	3	TNT_NoThink_CSp	TNT_NoThink_CSp	0	5	0	0	0	0	5000	4	Cue29.jpg	-16	0	0	0	0	0	0
3	2023-03-23	12:43:55	13:24:33	13:24:33:217	39	4	TNT_NoThink_CSp	Intrusion	0	1000	3000	0	80	1	910	1	How <b>often</b> did you <b>think</b> about the <b>scene</b>?   <center><br><b>NEVER (1)    BRIEFLY (2)   OFTEN (3) </b>	-16	0	0	0	0	0	0
3	2023-03-23	12:43:55	13:24:36	13:24:36:293	40	1	TNT_Object_CSp	fixation	0	5	1000	0	0	1	995	1	+	-16	0	0	0	0	0	0
3	2023-03-23	12:43:55	13:24:37	13:24:37:306	40	2	TNT_Object_CSp	Passive	0	5	0	0	0	0	1000	1	VIEW	-16	0	0	0	0	0	0
3	2023-03-23	12:43:55	13:24:42	13:24:42:323	40	3	TNT_Object_CSp	TNT_Object_CSp	0	500	0	0	0	0	5000	4	Object1.jpg	-16	0	0	0	0	0	0
3	2023-03-23	12:43:55	13:24:44	13:24:44:322	41	1	TNT_Think_CSm	fixation	0	5	1500	0	0	1	1495	1	+	-8	0	0	0	0	0	0
3	2023-03-23	12:43:55	13:24:45	13:24:45:340	41	2	TNT_Think_CSm	Think	0	5	0	0	0	0	1000	1	THINK	-16	0	0	0	0	0	0
3	2023-03-23	12:43:55	13:24:50	13:24:50:357	41	3	TNT_Think_CSm	TNT_Think_CSm	0	5	0	0	0	0	5000	6	Cue23.jpg	-16	0	0	0	0	0	0
3	2023-03-23	12:43:55	13:24:51	13:24:51:137	41	4	TNT_Think_CSm	Intrusion	0	500	3000	0	81	1	764	1	How <b>often</b> did you <b>think</b> about the <b>scene</b>?   <center><br><b>NEVER (1)    BRIEFLY (2)   OFTEN (3) </b>	-16	0	0	0	0	0	0
3	2023-03-23	12:43:55	13:24:54	13:24:54:361	42	1	TNT_Think_CSp	fixation	0	5	1000	0	0	1	995	1	+	-16	0	0	0	0	0	0
3	2023-03-23	12:43:55	13:24:55	13:24:55:374	42	2	TNT_Think_CSp	Think	0	5	0	0	0	0	1000	1	THINK	-16	0	0	0	0	0	0
3	2023-03-23	12:43:55	13:25:00	13:25:00:390	42	3	TNT_Think_CSp	TNT_Think_CSp	0	5	0	0	0	0	5000	6	Cue11.jpg	-16	0	0	0	0	0	0
3	2023-03-23	12:43:55	13:25:01	13:25:01:121	42	4	TNT_Think_CSp	Intrusion	0	1500	3000	0	81	1	714	1	How <b>often</b> did you <b>think</b> about the <b>scene</b>?   <center><br><b>NEVER (1)    BRIEFLY (2)   OFTEN (3) </b>	-16	0	0	0	0	0	0
3	2023-03-23	12:43:55	13:25:03	13:25:03:894	43	1	TNT_NoThink_CSm	fixation	0	5	500	0	0	1	495	1	+	-16	0	0	0	0	0	0
3	2023-03-23	12:43:55	13:25:04	13:25:04:908	43	2	TNT_NoThink_CSm	NoThink	0	5	0	0	0	0	1000	1	DON'T THINK	-16	0	0	0	0	0	0
3	2023-03-23	12:43:55	13:25:10	13:25:10:924	43	3	TNT_NoThink_CSm	TNT_NoThink_CSm	0	5	0	0	0	0	5000	3	Cue7.jpg	-16	0	0	0	0	0	0
3	2023-03-23	12:43:55	13:25:11	13:25:11:057	43	4	TNT_NoThink_CSm	Intrusion	0	1000	3000	0	80	1	1116	1	How <b>often</b> did you <b>think</b> about the <b>scene</b>?   <center><br><b>NEVER (1)    BRIEFLY (2)   OFTEN (3) </b>	-16	0	0	0	0	0	0
3	2023-03-23	12:43:55	13:25:14	13:25:14:428	44	1	TNT_Think_CSp	fixation	0	5	1500	0	0	1	1495	1	+	-16	0	0	0	0	0	0
3	2023-03-23	12:43:55	13:25:15	13:25:15:441	44	2	TNT_Think_CSp	Think	0	5	0	0	0	0	1000	1	THINK	-16	0	0	0	0	0	0
3	2023-03-23	12:43:55	13:25:20	13:25:20:458	44	3	TNT_Think_CSp	TNT_Think_CSp	0	5	0	0	0	0	5000	1	Cue6.jpg	-16	0	0	0	0	0	0
3	2023-03-23	12:43:55	13:25:21	13:25:21:313	44	4	TNT_Think_CSp	Intrusion	0	500	3000	0	81	1	838	1	How <b>often</b> did you <b>think</b> about the <b>scene</b>?   <center><br><b>NEVER (1)    BRIEFLY (2)   OFTEN (3) </b>	-16	0	0	0	0	0	0
3	2023-03-23	12:43:55	13:25:24	13:25:24:462	45	1	TNT_Object_CSm	fixation	0	5	1000	0	0	1	995	1	+	-16	0	0	0	0	0	0
3	2023-03-23	12:43:55	13:25:25	13:25:25:476	45	2	TNT_Object_CSm	Passive	0	5	0	0	0	0	1000	1	VIEW	-16	0	0	0	0	0	0
3	2023-03-23	12:43:55	13:25:30	13:25:30:492	45	3	TNT_Object_CSm	TNT_Object_CSm	0	500	0	0	0	0	5000	3	Object3.jpg	-16	0	0	0	0	0	0
3	2023-03-23	12:43:55	13:25:31	13:25:31:492	46	1	TNT_NoThink_CSp	fixation	0	5	500	0	0	1	495	1	+	-8	0	0	0	0	0	0
3	2023-03-23	12:43:55	13:25:32	13:25:32:509	46	2	TNT_NoThink_CSp	NoThink	0	5	0	0	0	0	1000	1	DON'T THINK	-16	0	0	0	0	0	0
3	2023-03-23	12:43:55	13:25:37	13:25:37:526	46	3	TNT_NoThink_CSp	TNT_NoThink_CSp	0	5	0	0	0	0	5000	2	Cue34.jpg	-16	0	0	0	0	0	0
3	2023-03-23	12:43:55	13:25:38	13:25:38:177	46	4	TNT_NoThink_CSp	Intrusion	0	1500	3000	0	79	1	634	1	How <b>often</b> did you <b>think</b> about the <b>scene</b>?   <center><br><b>NEVER (1)    BRIEFLY (2)   OFTEN (3) </b>	-16	0	0	0	0	0	0
3	2023-03-23	12:43:55	13:25:42	13:25:42:030	47	1	TNT_Object_CSp	fixation	0	5	1500	0	0	1	1495	1	+	-16	0	0	0	0	0	0
3	2023-03-23	12:43:55	13:25:43	13:25:43:043	47	2	TNT_Object_CSp	Passive	0	5	0	0	0	0	1000	1	VIEW	-16	0	0	0	0	0	0
3	2023-03-23	12:43:55	13:25:48	13:25:48:060	47	3	TNT_Object_CSp	TNT_Object_CSp	0	1000	0	0	0	0	5000	2	Object2.jpg	-16	0	0	0	0	0	0
3	2023-03-23	12:43:55	13:25:50	13:25:50:060	48	1	TNT_Object_CSm	fixation	0	5	1000	0	0	1	995	1	+	-8	0	0	0	0	0	0
3	2023-03-23	12:43:55	13:25:51	13:25:51:077	48	2	TNT_Object_CSm	Passive	0	5	0	0	0	0	1000	1	VIEW	-16	0	0	0	0	0	0
3	2023-03-23	12:43:55	13:25:56	13:25:56:094	48	3	TNT_Object_CSm	TNT_Object_CSm	0	1000	0	0	0	0	5000	1	Object7.jpg	-16	0	0	0	0	0	0
3	2023-03-23	12:43:55	13:25:57	13:25:57:593	49	1	TNT_Think_CSp	fixation	0	5	500	0	0	1	495	1	+	-8	0	0	0	0	0	0
3	2023-03-23	12:43:55	13:25:58	13:25:58:611	49	2	TNT_Think_CSp	Think	0	5	0	0	0	0	1000	1	THINK	-16	0	0	0	0	0	0
3	2023-03-23	12:43:55	13:26:03	13:26:03:628	49	3	TNT_Think_CSp	TNT_Think_CSp	0	5	0	0	0	0	5000	5	Cue24.jpg	-16	0	0	0	0	0	0
3	2023-03-23	12:43:55	13:26:04	13:26:04:369	49	4	TNT_Think_CSp	Intrusion	0	1000	3000	0	81	1	725	1	How <b>often</b> did you <b>think</b> about the <b>scene</b>?   <center><br><b>NEVER (1)    BRIEFLY (2)   OFTEN (3) </b>	-16	0	0	0	0	0	0
3	2023-03-23	12:43:55	13:26:08	13:26:08:131	50	1	TNT_Think_CSm	fixation	0	5	1500	0	0	1	1495	1	+	-16	0	0	0	0	0	0
3	2023-03-23	12:43:55	13:26:09	13:26:09:145	50	2	TNT_Think_CSm	Think	0	5	0	0	0	0	1000	1	THINK	-16	0	0	0	0	0	0
3	2023-03-23	12:43:55	13:26:14	13:26:14:162	50	3	TNT_Think_CSm	TNT_Think_CSm	0	5	0	0	0	0	5000	4	Cue18.jpg	-16	0	0	0	0	0	0
3	2023-03-23	12:43:55	13:26:14	13:26:14:817	50	4	TNT_Think_CSm	Intrusion	0	500	3000	0	81	1	638	1	How <b>often</b> did you <b>think</b> about the <b>scene</b>?   <center><br><b>NEVER (1)    BRIEFLY (2)   OFTEN (3) </b>	-16	0	0	0	0	0	0
3	2023-03-23	12:43:55	13:26:18	13:26:18:166	51	1	TNT_NoThink_CSm	fixation	0	5	1000	0	0	1	995	1	+	-16	0	0	0	0	0	0
3	2023-03-23	12:43:55	13:26:19	13:26:19:178	51	2	TNT_NoThink_CSm	NoThink	0	5	0	0	0	0	1000	1	DON'T THINK	-16	0	0	0	0	0	0
3	2023-03-23	12:43:55	13:26:24	13:26:24:195	51	3	TNT_NoThink_CSm	TNT_NoThink_CSm	0	5	0	0	0	0	5000	1	Cue32.jpg	-16	0	0	0	0	0	0
3	2023-03-23	12:43:55	13:26:25	13:26:25:961	51	4	TNT_NoThink_CSm	Intrusion	0	1500	3000	0	79	1	749	1	How <b>often</b> did you <b>think</b> about the <b>scene</b>?   <center><br><b>NEVER (1)    BRIEFLY (2)   OFTEN (3) </b>	-16	0	0	0	0	0	0
3	2023-03-23	12:43:55	13:26:27	13:26:27:699	52	1	TNT_Think_CSp	fixation	0	5	500	0	0	1	495	1	+	-16	0	0	0	0	0	0
3	2023-03-23	12:43:55	13:26:28	13:26:28:712	52	2	TNT_Think_CSp	Think	0	5	0	0	0	0	1000	1	THINK	-16	0	0	0	0	0	0
3	2023-03-23	12:43:55	13:26:33	13:26:33:729	52	3	TNT_Think_CSp	TNT_Think_CSp	0	5	0	0	0	0	5000	2	Cue8.jpg	-16	0	0	0	0	0	0
3	2023-03-23	12:43:55	13:26:34	13:26:34:161	52	4	TNT_Think_CSp	Intrusion	0	1000	3000	0	81	1	415	1	How <b>often</b> did you <b>think</b> about the <b>scene</b>?   <center><br><b>NEVER (1)    BRIEFLY (2)   OFTEN (3) </b>	-16	0	0	0	0	0	0
3	2023-03-23	12:43:55	13:26:37	13:26:37:233	53	1	TNT_Object_CSp	fixation	0	5	500	0	0	1	495	1	+	-16	0	0	0	0	0	0
3	2023-03-23	12:43:55	13:26:38	13:26:38:246	53	2	TNT_Object_CSp	Passive	0	5	0	0	0	0	1000	1	VIEW	-16	0	0	0	0	0	0
3	2023-03-23	12:43:55	13:26:43	13:26:43:263	53	3	TNT_Object_CSp	TNT_Object_CSp	0	500	0	0	0	0	5000	3	Object4.jpg	-16	0	0	0	0	0	0
3	2023-03-23	12:43:55	13:26:44	13:26:44:762	54	1	TNT_Think_CSp	fixation	0	5	1000	0	0	1	995	1	+	-8	0	0	0	0	0	0
3	2023-03-23	12:43:55	13:26:45	13:26:45:780	54	2	TNT_Think_CSp	Think	0	5	0	0	0	0	1000	1	THINK	-16	0	0	0	0	0	0
3	2023-03-23	12:43:55	13:26:50	13:26:50:797	54	3	TNT_Think_CSp	TNT_Think_CSp	0	5	0	0	0	0	5000	4	Cue12.jpg	-16	0	0	0	0	0	0
3	2023-03-23	12:43:55	13:26:51	13:26:51:633	54	4	TNT_Think_CSp	Intrusion	0	500	3000	0	81	1	819	1	How <b>often</b> did you <b>think</b> about the <b>scene</b>?   <center><br><b>NEVER (1)    BRIEFLY (2)   OFTEN (3) </b>	-16	0	0	0	0	0	0
3	2023-03-23	12:43:55	13:26:55	13:26:55:301	55	1	TNT_NoThink_CSm	fixation	0	5	1500	0	0	1	1495	1	+	-16	0	0	0	0	0	0
3	2023-03-23	12:43:55	13:26:56	13:26:56:314	55	2	TNT_NoThink_CSm	NoThink	0	5	0	0	0	0	1000	1	DON'T THINK	-16	0	0	0	0	0	0
3	2023-03-23	12:43:55	13:27:01	13:27:01:331	55	3	TNT_NoThink_CSm	TNT_NoThink_CSm	0	5	0	0	0	0	5000	2	Cue16.jpg	-16	0	0	0	0	0	0
3	2023-03-23	12:43:55	13:27:02	13:27:02:937	55	4	TNT_NoThink_CSm	Intrusion	0	500	3000	0	79	1	590	1	How <b>often</b> did you <b>think</b> about the <b>scene</b>?   <center><br><b>NEVER (1)    BRIEFLY (2)   OFTEN (3) </b>	-16	0	0	0	0	0	0
3	2023-03-23	12:43:55	13:27:05	13:27:05:835	56	1	TNT_Think_CSm	fixation	0	5	1500	0	0	1	1495	1	+	-16	0	0	0	0	0	0
3	2023-03-23	12:43:55	13:27:06	13:27:06:848	56	2	TNT_Think_CSm	Think	0	5	0	0	0	0	1000	1	THINK	-16	0	0	0	0	0	0
3	2023-03-23	12:43:55	13:27:11	13:27:11:865	56	3	TNT_Think_CSm	TNT_Think_CSm	0	5	0	0	0	0	5000	3	Cue28.jpg	-16	0	0	0	0	0	0
3	2023-03-23	12:43:55	13:27:12	13:27:12:401	56	4	TNT_Think_CSm	Intrusion	0	1000	3000	0	81	1	519	1	How <b>often</b> did you <b>think</b> about the <b>scene</b>?   <center><br><b>NEVER (1)    BRIEFLY (2)   OFTEN (3) </b>	-16	0	0	0	0	0	0
3	2023-03-23	12:43:55	13:27:15	13:27:15:869	57	1	TNT_Object_CSm	fixation	0	5	1000	0	0	1	995	1	+	-16	0	0	0	0	0	0
3	2023-03-23	12:43:55	13:27:16	13:27:16:882	57	2	TNT_Object_CSm	Passive	0	5	0	0	0	0	1000	1	VIEW	-16	0	0	0	0	0	0
3	2023-03-23	12:43:55	13:27:21	13:27:21:899	57	3	TNT_Object_CSm	TNT_Object_CSm	0	1000	0	0	0	0	5000	4	Object6.jpg	-16	0	0	0	0	0	0
3	2023-03-23	12:43:55	13:27:23	13:27:23:398	58	1	TNT_Think_CSm	fixation	0	5	500	0	0	1	495	1	+	-8	0	0	0	0	0	0
3	2023-03-23	12:43:55	13:27:24	13:27:24:415	58	2	TNT_Think_CSm	Think	0	5	0	0	0	0	1000	1	THINK	-16	0	0	0	0	0	0
3	2023-03-23	12:43:55	13:27:29	13:27:29:432	58	3	TNT_Think_CSm	TNT_Think_CSm	0	5	0	0	0	0	5000	2	Cue35.jpg	-16	0	0	0	0	0	0
3	2023-03-23	12:43:55	13:27:30	13:27:30:721	58	4	TNT_Think_CSm	Intrusion	0	1500	3000	0	81	1	1271	1	How <b>often</b> did you <b>think</b> about the <b>scene</b>?   <center><br><b>NEVER (1)    BRIEFLY (2)   OFTEN (3) </b>	-16	0	0	0	0	0	0
3	2023-03-23	12:43:55	13:27:33	13:27:33:936	59	1	TNT_Think_CSp	fixation	0	5	500	0	0	1	495	1	+	-16	0	0	0	0	0	0
3	2023-03-23	12:43:55	13:27:34	13:27:34:949	59	2	TNT_Think_CSp	Think	0	5	0	0	0	0	1000	1	THINK	-16	0	0	0	0	0	0
3	2023-03-23	12:43:55	13:27:39	13:27:39:966	59	3	TNT_Think_CSp	TNT_Think_CSp	0	5	0	0	0	0	5000	3	Cue10.jpg	-16	0	0	0	0	0	0
3	2023-03-23	12:43:55	13:27:39	13:27:39:585	59	4	TNT_Think_CSp	Intrusion	0	500	3000	0	81	1	602	1	How <b>often</b> did you <b>think</b> about the <b>scene</b>?   <center><br><b>NEVER (1)    BRIEFLY (2)   OFTEN (3) </b>	-16	0	0	0	0	0	0
3	2023-03-23	12:43:55	13:27:43	13:27:43:470	60	1	TNT_Object_CSm	fixation	0	5	1500	0	0	1	1495	1	+	-16	0	0	0	0	0	0
3	2023-03-23	12:43:55	13:27:44	13:27:44:483	60	2	TNT_Object_CSm	Passive	0	5	0	0	0	0	1000	1	VIEW	-16	0	0	0	0	0	0
3	2023-03-23	12:43:55	13:27:49	13:27:49:500	60	3	TNT_Object_CSm	TNT_Object_CSm	0	1500	0	0	0	0	5000	2	Object5.jpg	-16	0	0	0	0	0	0
3	2023-03-23	12:43:55	13:27:52	13:27:52:998	61	1	TNT_NoThink_CSm	fixation	0	5	1000	0	0	1	995	1	+	-8	0	0	0	0	0	0
3	2023-03-23	12:43:55	13:27:53	13:27:53:017	61	2	TNT_NoThink_CSm	NoThink	0	5	0	0	0	0	1000	1	DON'T THINK	-16	0	0	0	0	0	0
3	2023-03-23	12:43:55	13:27:58	13:27:58:034	61	3	TNT_NoThink_CSm	TNT_NoThink_CSm	0	5	0	0	0	0	5000	4	Cue30.jpg	-16	0	0	0	0	0	0
3	2023-03-23	12:43:55	13:27:59	13:27:59:105	61	4	TNT_NoThink_CSm	Intrusion	0	1000	3000	0	79	1	1054	1	How <b>often</b> did you <b>think</b> about the <b>scene</b>?   <center><br><b>NEVER (1)    BRIEFLY (2)   OFTEN (3) </b>	-16	0	0	0	0	0	0
3	2023-03-23	12:43:55	13:28:01	13:28:01:538	62	1	TNT_NoThink_CSp	fixation	0	5	500	0	0	1	495	1	+	-16	0	0	0	0	0	0
3	2023-03-23	12:43:55	13:28:02	13:28:02:551	62	2	TNT_NoThink_CSp	NoThink	0	5	0	0	0	0	1000	1	DON'T THINK	-16	0	0	0	0	0	0
3	2023-03-23	12:43:55	13:28:07	13:28:07:568	62	3	TNT_NoThink_CSp	TNT_NoThink_CSp	0	5	0	0	0	0	5000	3	Cue21.jpg	-16	0	0	0	0	0	0
3	2023-03-23	12:43:55	13:28:08	13:28:08:321	62	4	TNT_NoThink_CSp	Intrusion	0	1500	3000	0	80	1	737	1	How <b>often</b> did you <b>think</b> about the <b>scene</b>?   <center><br><b>NEVER (1)    BRIEFLY (2)   OFTEN (3) </b>	-16	0	0	0	0	0	0
3	2023-03-23	12:43:55	13:28:11	13:28:11:572	63	1	TNT_Think_CSm	fixation	0	5	1000	0	0	1	995	1	+	-16	0	0	0	0	0	0
3	2023-03-23	12:43:55	13:28:12	13:28:12:585	63	2	TNT_Think_CSm	Think	0	5	0	0	0	0	1000	1	THINK	-16	0	0	0	0	0	0
3	2023-03-23	12:43:55	13:28:17	13:28:17:602	63	3	TNT_Think_CSm	TNT_Think_CSm	0	5	0	0	0	0	5000	5	Cue26.jpg	-16	0	0	0	0	0	0
3	2023-03-23	12:43:55	13:28:18	13:28:18:241	63	4	TNT_Think_CSm	Intrusion	0	1000	3000	0	81	1	621	1	How <b>often</b> did you <b>think</b> about the <b>scene</b>?   <center><br><b>NEVER (1)    BRIEFLY (2)   OFTEN (3) </b>	-16	0	0	0	0	0	0
3	2023-03-23	12:43:55	13:28:22	13:28:22:106	64	1	TNT_NoThink_CSp	fixation	0	5	1500	0	0	1	1495	1	+	-16	0	0	0	0	0	0
3	2023-03-23	12:43:55	13:28:23	13:28:23:119	64	2	TNT_NoThink_CSp	NoThink	0	5	0	0	0	0	1000	1	DON'T THINK	-16	0	0	0	0	0	0
3	2023-03-23	12:43:55	13:28:28	13:28:28:136	64	3	TNT_NoThink_CSp	TNT_NoThink_CSp	0	5	0	0	0	0	5000	6	Cue9.jpg	-16	0	0	0	0	0	0
3	2023-03-23	12:43:55	13:28:29	13:28:29:137	64	4	TNT_NoThink_CSp	Intrusion	0	1500	3000	0	79	1	985	1	How <b>often</b> did you <b>think</b> about the <b>scene</b>?   <center><br><b>NEVER (1)    BRIEFLY (2)   OFTEN (3) </b>	-16	0	0	0	0	0	0
3	2023-03-23	12:43:55	13:28:32	13:28:32:640	65	1	TNT_NoThink_CSp	fixation	0	5	1500	0	0	1	1495	1	+	-16	0	0	0	0	0	0
3	2023-03-23	12:43:55	13:28:33	13:28:33:653	65	2	TNT_NoThink_CSp	NoThink	0	5	0	0	0	0	1000	1	DON'T THINK	-16	0	0	0	0	0	0
3	2023-03-23	12:43:55	13:28:38	13:28:38:670	65	3	TNT_NoThink_CSp	TNT_NoThink_CSp	0	5	0	0	0	0	5000	1	Cue17.jpg	-16	0	0	0	0	0	0
3	2023-03-23	12:43:55	13:28:39	13:28:39:409	65	4	TNT_NoThink_CSp	Intrusion	0	500	3000	0	79	1	723	1	How <b>often</b> did you <b>think</b> about the <b>scene</b>?   <center><br><b>NEVER (1)    BRIEFLY (2)   OFTEN (3) </b>	-16	0	0	0	0	0	0
3	2023-03-23	12:43:55	13:28:42	13:28:42:174	66	1	Expectancy_rating	fixation	0	5	500	0	0	1	495	1	+	-16	0	0	0	0	0	0
3	2023-03-23	12:43:55	13:28:49	13:28:49:218	66	2	Expectancy_rating	expectancy_rating	0	500	0	0	1	0	7030	1	When you saw the <b>object</b>,   to what <b>degree (0-100%)</b> did you expect the <b>unpleasant sound to occur</b>?	-16	34	Cue34.jpg	-16	0	0	0
3	2023-03-23	12:43:55	13:29:09	13:29:09:916	67	1	Expectancy_rating	fixation	0	5	1000	0	0	1	995	1	+	-16	0	0	0	0	0	0
3	2023-03-23	12:43:55	13:29:14	13:29:14:770	67	2	Expectancy_rating	expectancy_rating	0	1500	0	0	0	0	4823	1	When you saw the <b>object</b>,   to what <b>degree (0-100%)</b> did you expect the <b>unpleasant sound to occur</b>?	-6	15	Cue15.jpg	-6	0	0	0
3	2023-03-23	12:43:55	13:29:33	13:29:33:366	68	1	Expectancy_rating	fixation	0	5	500	0	0	1	495	1	+	-15	0	0	0	0	0	0
3	2023-03-23	12:43:55	13:29:39	13:29:39:238	68	2	Expectancy_rating	expectancy_rating	0	1000	0	0	7	0	5852	1	When you saw the <b>object</b>,   to what <b>degree (0-100%)</b> did you expect the <b>unpleasant sound to occur</b>?	-16	19	Cue19.jpg	-16	0	0	0
3	2023-03-23	12:43:55	13:29:57	13:29:57:977	69	1	Expectancy_rating	fixation	0	5	1500	0	0	1	1495	1	+	-8	0	0	0	0	0	0
3	2023-03-23	12:43:55	13:30:04	13:30:04:872	69	2	Expectancy_rating	expectancy_rating	0	1500	0	0	3	0	7850	1	When you saw the <b>object</b>,   to what <b>degree (0-100%)</b> did you expect the <b>unpleasant sound to occur</b>?	-16	25	Cue25.jpg	-16	0	0	0
3	2023-03-23	12:43:55	13:30:08	13:30:08:663	70	1	Expectancy_rating	fixation	0	5	1000	0	0	1	995	1	+	-14	0	0	0	0	0	0
3	2023-03-23	12:43:55	13:30:18	13:30:18:573	70	2	Expectancy_rating	expectancy_rating	0	500	0	0	22	0	9886	1	When you saw the <b>object</b>,   to what <b>degree (0-100%)</b> did you expect the <b>unpleasant sound to occur</b>?	-16	27	Cue27.jpg	-16	0	0	0
3	2023-03-23	12:43:55	13:30:20	13:30:20:708	71	1	Expectancy_rating	fixation	0	5	500	0	0	1	495	1	+	-15	0	0	0	0	0	0
3	2023-03-23	12:43:55	13:30:26	13:30:26:240	71	2	Expectancy_rating	expectancy_rating	0	1000	0	0	4	0	5484	1	When you saw the <b>object</b>,   to what <b>degree (0-100%)</b> did you expect the <b>unpleasant sound to occur</b>?	-16	36	Cue36.jpg	-16	0	0	0
3	2023-03-23	12:43:55	13:30:30	13:30:30:363	72	1	Expectancy_rating	fixation	0	5	1500	0	0	1	1495	1	+	-15	0	0	0	0	0	0
3	2023-03-23	12:43:55	13:30:40	13:30:40:624	72	2	Expectancy_rating	expectancy_rating	0	500	0	0	72	0	10217	1	When you saw the <b>object</b>,   to what <b>degree (0-100%)</b> did you expect the <b>unpleasant sound to occur</b>?	-16	30	Cue30.jpg	-16	0	0	0
3	2023-03-23	12:43:55	13:30:44	13:30:44:124	73	1	Expectancy_rating	fixation	0	5	1000	0	0	1	995	1	+	-8	0	0	0	0	0	0
3	2023-03-23	12:43:55	13:30:51	13:30:51:08	73	2	Expectancy_rating	expectancy_rating	0	1000	0	0	71	0	6866	1	When you saw the <b>object</b>,   to what <b>degree (0-100%)</b> did you expect the <b>unpleasant sound to occur</b>?	-6	10	Cue10.jpg	-6	0	0	0
3	2023-03-23	12:43:55	13:30:55	13:30:55:148	74	1	Expectancy_rating	fixation	0	5	1500	0	0	1	1495	1	+	-15	0	0	0	0	0	0
3	2023-03-23	12:43:55	13:31:02	13:31:02:110	74	2	Expectancy_rating	expectancy_rating	0	1500	0	0	1	0	6944	1	When you saw the <b>object</b>,   to what <b>degree (0-100%)</b> did you expect the <b>unpleasant sound to occur</b>?	-16	48	Object8.jpg	-16	0	0	0
3	2023-03-23	12:43:55	13:31:05	13:31:05:396	75	1	Expectancy_rating	fixation	0	5	500	0	0	1	495	1	+	-15	0	0	0	0	0	0
3	2023-03-23	12:43:55	13:31:12	13:31:12:744	75	2	Expectancy_rating	expectancy_rating	0	500	0	0	12	0	7326	1	When you saw the <b>object</b>,   to what <b>degree (0-100%)</b> did you expect the <b>unpleasant sound to occur</b>?	-16	35	Cue35.jpg	-16	0	0	0
3	2023-03-23	12:43:55	13:31:15	13:31:15:767	76	1	Expectancy_rating	fixation	0	5	1000	0	0	1	995	1	+	-15	0	0	0	0	0	0
3	2023-03-23	12:43:55	13:31:20	13:31:20:094	76	2	Expectancy_rating	expectancy_rating	0	1000	0	0	5	0	4310	1	When you saw the <b>object</b>,   to what <b>degree (0-100%)</b> did you expect the <b>unpleasant sound to occur</b>?	-16	38	Cue38.jpg	-16	0	0	0
3	2023-03-23	12:43:55	13:31:23	13:31:23:111	77	1	Expectancy_rating	fixation	0	5	1000	0	0	1	995	1	+	-14	0	0	0	0	0	0
3	2023-03-23	12:43:55	13:31:26	13:31:26:811	77	2	Expectancy_rating	expectancy_rating	0	1500	0	0	71	0	3680	1	When you saw the <b>object</b>,   to what <b>degree (0-100%)</b> did you expect the <b>unpleasant sound to occur</b>?	-16	18	Cue18.jpg	-16	0	0	0
3	2023-03-23	12:43:55	13:31:29	13:31:29:878	78	1	Expectancy_rating	fixation	0	5	500	0	0	1	495	1	+	-13	0	0	0	0	0	0
3	2023-03-23	12:43:55	13:31:36	13:31:36:128	78	2	Expectancy_rating	expectancy_rating	0	1000	0	0	83	0	6201	1	When you saw the <b>object</b>,   to what <b>degree (0-100%)</b> did you expect the <b>unpleasant sound to occur</b>?	-16	42	Object2.jpg	-16	0	0	0
3	2023-03-23	12:43:55	13:31:40	13:31:40:767	79	1	Expectancy_rating	fixation	0	5	1500	0	0	1	1495	1	+	-8	0	0	0	0	0	0
3	2023-03-23	12:43:55	13:31:45	13:31:45:278	79	2	Expectancy_rating	expectancy_rating	0	1500	0	0	4	0	4485	1	When you saw the <b>object</b>,   to what <b>degree (0-100%)</b> did you expect the <b>unpleasant sound to occur</b>?	-16	9	Cue9.jpg	-16	0	0	0
3	2023-03-23	12:43:55	13:31:49	13:31:49:691	80	1	Expectancy_rating	fixation	0	5	1500	0	0	1	1495	1	+	-15	0	0	0	0	0	0
3	2023-03-23	12:43:55	13:31:56	13:31:56:395	80	2	Expectancy_rating	expectancy_rating	0	500	0	0	77	0	6671	1	When you saw the <b>object</b>,   to what <b>degree (0-100%)</b> did you expect the <b>unpleasant sound to occur</b>?	-12	44	Object4.jpg	-12	0	0	0
3	2023-03-23	12:43:55	13:31:58	13:31:58:852	81	1	Expectancy_rating	fixation	0	5	500	0	0	1	495	1	+	-15	0	0	0	0	0	0
3	2023-03-23	12:43:55	13:32:03	13:32:03:580	81	2	Expectancy_rating	expectancy_rating	0	1000	0	0	82	0	4705	1	When you saw the <b>object</b>,   to what <b>degree (0-100%)</b> did you expect the <b>unpleasant sound to occur</b>?	-16	39	Cue39.jpg	-16	0	0	0
3	2023-03-23	12:43:55	13:32:06	13:32:06:599	82	1	Expectancy_rating	fixation	0	5	1000	0	0	1	995	1	+	-15	0	0	0	0	0	0
3	2023-03-23	12:43:55	13:32:12	13:32:12:980	82	2	Expectancy_rating	expectancy_rating	0	500	0	0	2	0	5354	1	When you saw the <b>object</b>,   to what <b>degree (0-100%)</b> did you expect the <b>unpleasant sound to occur</b>?	-16	46	Object6.jpg	-16	0	0	0
3	2023-03-23	12:43:55	13:32:15	13:32:15:195	83	1	Expectancy_rating	fixation	0	5	1500	0	0	1	1495	1	+	-15	0	0	0	0	0	0
3	2023-03-23	12:43:55	13:32:21	13:32:21:997	83	2	Expectancy_rating	expectancy_rating	0	1500	0	0	6	0	5770	1	When you saw the <b>object</b>,   to what <b>degree (0-100%)</b> did you expect the <b>unpleasant sound to occur</b>?	-12	1	Cue1.jpg	-12	0	0	0
3	2023-03-23	12:43:55	13:32:24	13:32:24:679	84	1	Expectancy_rating	fixation	0	5	500	0	0	1	495	1	+	-8	0	0	0	0	0	0
3	2023-03-23	12:43:55	13:32:29	13:32:29:547	84	2	Expectancy_rating	expectancy_rating	0	500	0	0	0	0	4846	1	When you saw the <b>object</b>,   to what <b>degree (0-100%)</b> did you expect the <b>unpleasant sound to occur</b>?	-6	45	Object5.jpg	-6	0	0	0
3	2023-03-23	12:43:55	13:32:32	13:32:32:264	85	1	Expectancy_rating	fixation	0	5	1000	0	0	1	995	1	+	-15	0	0	0	0	0	0
3	2023-03-23	12:43:55	13:32:37	13:32:37:881	85	2	Expectancy_rating	expectancy_rating	0	1000	0	0	4	0	5598	1	When you saw the <b>object</b>,   to what <b>degree (0-100%)</b> did you expect the <b>unpleasant sound to occur</b>?	-16	31	Cue31.jpg	-16	0	0	0
3	2023-03-23	12:43:55	13:32:40	13:32:40:839	86	1	Expectancy_rating	fixation	0	5	1000	0	0	1	995	1	+	-15	0	0	0	0	0	0
3	2023-03-23	12:43:55	13:32:47	13:32:47:182	86	2	Expectancy_rating	expectancy_rating	0	1500	0	0	98	0	6327	1	When you saw the <b>object</b>,   to what <b>degree (0-100%)</b> did you expect the <b>unpleasant sound to occur</b>?	-16	41	Object1.jpg	-16	0	0	0
3	2023-03-23	12:43:55	13:32:50	13:32:50:227	87	1	Expectancy_rating	fixation	0	5	500	0	0	1	495	1	+	-15	0	0	0	0	0	0
3	2023-03-23	12:43:55	13:32:56	13:32:56:366	87	2	Expectancy_rating	expectancy_rating	0	1500	0	0	6	0	6102	1	When you saw the <b>object</b>,   to what <b>degree (0-100%)</b> did you expect the <b>unpleasant sound to occur</b>?	-12	14	Cue14.jpg	-12	0	0	0
3	2023-03-23	12:43:55	13:33:00	13:33:00:507	88	1	Expectancy_rating	fixation	0	5	1500	0	0	1	1495	1	+	-15	0	0	0	0	0	0
3	2023-03-23	12:43:55	13:33:05	13:33:05:566	88	2	Expectancy_rating	expectancy_rating	0	1000	0	0	2	0	5035	1	When you saw the <b>object</b>,   to what <b>degree (0-100%)</b> did you expect the <b>unpleasant sound to occur</b>?	-16	23	Cue23.jpg	-16	0	0	0
3	2023-03-23	12:43:55	13:33:09	13:33:09:035	89	1	Expectancy_rating	fixation	0	5	1500	0	0	1	1495	1	+	-15	0	0	0	0	0	0
3	2023-03-23	12:43:55	13:33:13	13:33:13:800	89	2	Expectancy_rating	expectancy_rating	0	500	0	0	3	0	4741	1	When you saw the <b>object</b>,   to what <b>degree (0-100%)</b> did you expect the <b>unpleasant sound to occur</b>?	-16	21	Cue21.jpg	-16	0	0	0
3	2023-03-23	12:43:55	13:33:17	13:33:17:950	90	1	Expectancy_rating	fixation	0	5	500	0	0	1	495	1	+	-3	0	0	0	0	0	0
3	2023-03-23	12:43:55	13:33:22	13:33:22:183	90	2	Expectancy_rating	expectancy_rating	0	1500	0	0	3	0	5208	1	When you saw the <b>object</b>,   to what <b>degree (0-100%)</b> did you expect the <b>unpleasant sound to occur</b>?	-16	40	Cue40.jpg	-16	0	0	0
3	2023-03-23	12:43:55	13:33:25	13:33:25:560	91	1	Expectancy_rating	fixation	0	5	1000	0	0	1	995	1	+	-16	0	0	0	0	0	0
3	2023-03-23	12:43:55	13:33:29	13:33:29:784	91	2	Expectancy_rating	expectancy_rating	0	500	0	0	1	0	4216	1	When you saw the <b>object</b>,   to what <b>degree (0-100%)</b> did you expect the <b>unpleasant sound to occur</b>?	-16	17	Cue17.jpg	-16	0	0	0
3	2023-03-23	12:43:55	13:33:32	13:33:32:579	92	1	Expectancy_rating	fixation	0	5	500	0	0	1	495	1	+	-14	0	0	0	0	0	0
3	2023-03-23	12:43:55	13:33:36	13:33:36:052	92	2	Expectancy_rating	expectancy_rating	0	1000	0	0	10	0	3446	1	When you saw the <b>object</b>,   to what <b>degree (0-100%)</b> did you expect the <b>unpleasant sound to occur</b>?	-10	29	Cue29.jpg	-10	0	0	0
3	2023-03-23	12:43:55	13:33:38	13:33:38:727	93	1	Expectancy_rating	fixation	0	5	1000	0	0	1	995	1	+	-16	0	0	0	0	0	0
3	2023-03-23	12:43:55	13:33:43	13:33:43:069	93	2	Expectancy_rating	expectancy_rating	0	1500	0	0	6	0	4328	1	When you saw the <b>object</b>,   to what <b>degree (0-100%)</b> did you expect the <b>unpleasant sound to occur</b>?	-16	3	Cue3.jpg	-16	0	0	0
3	2023-03-23	12:43:55	13:33:46	13:33:46:795	94	1	Expectancy_rating	fixation	0	5	1500	0	0	1	1495	1	+	-15	0	0	0	0	0	0
3	2023-03-23	12:43:55	13:33:50	13:33:50:318	94	2	Expectancy_rating	expectancy_rating	0	1000	0	0	0	0	3509	1	When you saw the <b>object</b>,   to what <b>degree (0-100%)</b> did you expect the <b>unpleasant sound to occur</b>?	-16	43	Object3.jpg	-16	0	0	0
3	2023-03-23	12:43:55	13:33:53	13:33:53:531	95	1	Expectancy_rating	fixation	0	5	1500	0	0	1	1495	1	+	-15	0	0	0	0	0	0
3	2023-03-23	12:43:55	13:33:58	13:33:58:670	95	2	Expectancy_rating	expectancy_rating	0	500	0	0	1	0	5111	1	When you saw the <b>object</b>,   to what <b>degree (0-100%)</b> did you expect the <b>unpleasant sound to occur</b>?	-12	33	Cue33.jpg	-12	0	0	0
3	2023-03-23	12:43:55	13:34:01	13:34:01:127	96	1	Expectancy_rating	fixation	0	5	1000	0	0	1	995	1	+	-15	0	0	0	0	0	0
3	2023-03-23	12:43:55	13:34:05	13:34:05:537	96	2	Expectancy_rating	expectancy_rating	0	1000	0	0	82	0	4391	1	When you saw the <b>object</b>,   to what <b>degree (0-100%)</b> did you expect the <b>unpleasant sound to occur</b>?	-16	11	Cue11.jpg	-16	0	0	0
3	2023-03-23	12:43:55	13:34:07	13:34:07:862	97	1	Expectancy_rating	fixation	0	5	500	0	0	1	495	1	+	-9	0	0	0	0	0	0
3	2023-03-23	12:43:55	13:34:11	13:34:11:870	97	2	Expectancy_rating	expectancy_rating	0	1500	0	0	12	0	3993	1	When you saw the <b>object</b>,   to what <b>degree (0-100%)</b> did you expect the <b>unpleasant sound to occur</b>?	-16	24	Cue24.jpg	-16	0	0	0
3	2023-03-23	12:43:55	13:34:15	13:34:15:623	98	1	Expectancy_rating	fixation	0	5	1000	0	0	1	995	1	+	-15	0	0	0	0	0	0
3	2023-03-23	12:43:55	13:34:24	13:34:24:638	98	2	Expectancy_rating	expectancy_rating	0	500	0	0	5	0	8994	1	When you saw the <b>object</b>,   to what <b>degree (0-100%)</b> did you expect the <b>unpleasant sound to occur</b>?	-16	8	Cue8.jpg	-16	0	0	0
3	2023-03-23	12:43:55	13:34:27	13:34:27:899	99	1	Expectancy_rating	fixation	0	5	1500	0	0	1	1495	1	+	-15	0	0	0	0	0	0
3	2023-03-23	12:43:55	13:34:31	13:34:31:871	99	2	Expectancy_rating	expectancy_rating	0	1500	0	0	18	0	3942	1	When you saw the <b>object</b>,   to what <b>degree (0-100%)</b> did you expect the <b>unpleasant sound to occur</b>?	-12	4	Cue4.jpg	-12	0	0	0
3	2023-03-23	12:43:55	13:34:34	13:34:34:691	100	1	Expectancy_rating	fixation	0	5	500	0	0	1	495	1	+	-14	0	0	0	0	0	0
3	2023-03-23	12:43:55	13:34:43	13:34:43:622	100	2	Expectancy_rating	expectancy_rating	0	1000	0	0	6	0	8902	1	When you saw the <b>object</b>,   to what <b>degree (0-100%)</b> did you expect the <b>unpleasant sound to occur</b>?	-16	16	Cue16.jpg	-16	0	0	0
3	2023-03-23	12:43:55	13:34:46	13:34:46:307	101	1	Expectancy_rating	fixation	0	5	500	0	0	1	495	1	+	-15	0	0	0	0	0	0
3	2023-03-23	12:43:55	13:34:51	13:34:51:855	101	2	Expectancy_rating	expectancy_rating	0	500	0	0	46	0	5525	1	When you saw the <b>object</b>,   to what <b>degree (0-100%)</b> did you expect the <b>unpleasant sound to occur</b>?	-16	28	Cue28.jpg	-16	0	0	0
3	2023-03-23	12:43:55	13:34:54	13:34:54:073	102	1	Expectancy_rating	fixation	0	5	1000	0	0	1	995	1	+	-13	0	0	0	0	0	0
3	2023-03-23	12:43:55	13:34:58	13:34:58:206	102	2	Expectancy_rating	expectancy_rating	0	1000	0	0	2	0	4109	1	When you saw the <b>object</b>,   to what <b>degree (0-100%)</b> did you expect the <b>unpleasant sound to occur</b>?	-16	32	Cue32.jpg	-16	0	0	0
3	2023-03-23	12:43:55	13:35:01	13:35:01:376	103	1	Expectancy_rating	fixation	0	5	1500	0	0	1	1495	1	+	-8	0	0	0	0	0	0
3	2023-03-23	12:43:55	13:35:04	13:35:04:890	103	2	Expectancy_rating	expectancy_rating	0	1500	0	0	1	0	3490	1	When you saw the <b>object</b>,   to what <b>degree (0-100%)</b> did you expect the <b>unpleasant sound to occur</b>?	-16	37	Cue37.jpg	-16	0	0	0
3	2023-03-23	12:43:55	13:35:08	13:35:08:347	104	1	Expectancy_rating	fixation	0	5	1000	0	0	1	995	1	+	-7	0	0	0	0	0	0
3	2023-03-23	12:43:55	13:35:11	13:35:11:707	104	2	Expectancy_rating	expectancy_rating	0	500	0	0	76	0	3339	1	When you saw the <b>object</b>,   to what <b>degree (0-100%)</b> did you expect the <b>unpleasant sound to occur</b>?	-16	6	Cue6.jpg	-16	0	0	0
3	2023-03-23	12:43:55	13:35:14	13:35:14:523	105	1	Expectancy_rating	fixation	0	5	1500	0	0	1	1495	1	+	-15	0	0	0	0	0	0
3	2023-03-23	12:43:55	13:35:18	13:35:18:324	105	2	Expectancy_rating	expectancy_rating	0	1500	0	0	0	0	3771	1	When you saw the <b>object</b>,   to what <b>degree (0-100%)</b> did you expect the <b>unpleasant sound to occur</b>?	-10	5	Cue5.jpg	-10	0	0	0
3	2023-03-23	12:43:55	13:35:21	13:35:21:995	106	1	Expectancy_rating	fixation	0	5	500	0	0	1	495	1	+	-15	0	0	0	0	0	0
3	2023-03-23	12:43:55	13:35:24	13:35:24:474	106	2	Expectancy_rating	expectancy_rating	0	500	0	0	15	0	3464	1	When you saw the <b>object</b>,   to what <b>degree (0-100%)</b> did you expect the <b>unpleasant sound to occur</b>?	-16	20	Cue20.jpg	-16	0	0	0
3	2023-03-23	12:43:55	13:35:27	13:35:27:228	107	1	Expectancy_rating	fixation	0	5	1500	0	0	1	1495	1	+	-15	0	0	0	0	0	0
3	2023-03-23	12:43:55	13:35:29	13:35:29:841	107	2	Expectancy_rating	expectancy_rating	0	1000	0	0	0	0	2590	1	When you saw the <b>object</b>,   to what <b>degree (0-100%)</b> did you expect the <b>unpleasant sound to occur</b>?	-16	13	Cue13.jpg	-16	0	0	0
3	2023-03-23	12:43:55	13:35:32	13:35:32:723	108	1	Expectancy_rating	fixation	0	5	500	0	0	1	495	1	+	-15	0	0	0	0	0	0
3	2023-03-23	12:43:55	13:35:38	13:35:38:275	108	2	Expectancy_rating	expectancy_rating	0	1000	0	0	6	0	5522	1	When you saw the <b>object</b>,   to what <b>degree (0-100%)</b> did you expect the <b>unpleasant sound to occur</b>?	-11	12	Cue12.jpg	-11	0	0	0
3	2023-03-23	12:43:55	13:35:43	13:35:43:655	109	1	Expectancy_rating	fixation	0	5	1000	0	0	1	995	1	+	-15	0	0	0	0	0	0
3	2023-03-23	12:43:55	13:35:46	13:35:46:843	109	2	Expectancy_rating	expectancy_rating	0	1500	0	0	0	0	3156	1	When you saw the <b>object</b>,   to what <b>degree (0-100%)</b> did you expect the <b>unpleasant sound to occur</b>?	-12	47	Object7.jpg	-12	0	0	0
3	2023-03-23	12:43:55	13:35:49	13:35:49:715	110	1	Expectancy_rating	fixation	0	5	500	0	0	1	495	1	+	-15	0	0	0	0	0	0
3	2023-03-23	12:43:55	13:35:52	13:35:52:843	110	2	Expectancy_rating	expectancy_rating	0	500	0	0	0	0	3105	1	When you saw the <b>object</b>,   to what <b>degree (0-100%)</b> did you expect the <b>unpleasant sound to occur</b>?	-16	2	Cue2.jpg	-16	0	0	0
3	2023-03-23	12:43:55	13:35:55	13:35:55:741	111	1	Expectancy_rating	fixation	0	5	1500	0	0	1	1495	1	+	-8	0	0	0	0	0	0
3	2023-03-23	12:43:55	13:35:58	13:35:58:843	111	2	Expectancy_rating	expectancy_rating	0	1000	0	0	0	0	3072	1	When you saw the <b>object</b>,   to what <b>degree (0-100%)</b> did you expect the <b>unpleasant sound to occur</b>?	-8	26	Cue26.jpg	-8	0	0	0
3	2023-03-23	12:43:55	13:36:01	13:36:01:464	112	1	Expectancy_rating	fixation	0	5	1000	0	0	1	995	1	+	-15	0	0	0	0	0	0
3	2023-03-23	12:43:55	13:36:07	13:36:07:210	112	2	Expectancy_rating	expectancy_rating	0	500	0	0	74	0	5731	1	When you saw the <b>object</b>,   to what <b>degree (0-100%)</b> did you expect the <b>unpleasant sound to occur</b>?	-16	7	Cue7.jpg	-16	0	0	0
3	2023-03-23	12:43:55	13:36:09	13:36:09:979	113	1	Expectancy_rating	fixation	0	5	500	0	0	1	495	1	+	-15	0	0	0	0	0	0
3	2023-03-23	12:43:55	13:36:12	13:36:12:193	113	2	Expectancy_rating	expectancy_rating	0	1500	0	0	0	0	3189	1	When you saw the <b>object</b>,   to what <b>degree (0-100%)</b> did you expect the <b>unpleasant sound to occur</b>?	-16	22	Cue22.jpg	-16	0	0	0
3	2023-03-23	12:43:55	13:36:15	13:36:15:687	114	1	TNT_NoThink_CSm	fixation	0	5	1000	0	0	1	995	1	+	-14	0	0	0	0	0	0
3	2023-03-23	12:43:55	13:36:16	13:36:16:711	114	2	TNT_NoThink_CSm	NoThink	0	5	0	0	0	0	1000	1	DON'T THINK	-15	0	0	0	0	0	0
3	2023-03-23	12:43:55	13:36:21	13:36:21:727	114	3	TNT_NoThink_CSm	TNT_NoThink_CSm	0	5	0	0	0	0	5000	3	Cue7.jpg	-16	0	0	0	0	0	0
3	2023-03-23	12:43:55	13:36:22	13:36:22:030	114	4	TNT_NoThink_CSm	Intrusion	0	1500	3000	0	79	1	286	1	How <b>often</b> did you <b>think</b> about the <b>scene</b>?   <center><br><b>NEVER (1)    BRIEFLY (2)   OFTEN (3) </b>	-16	0	0	0	0	0	0
3	2023-03-23	12:43:55	13:36:26	13:36:26:229	115	1	TNT_Think_CSm	fixation	0	5	1500	0	0	1	1495	1	+	-15	0	0	0	0	0	0
3	2023-03-23	12:43:55	13:36:27	13:36:27:244	115	2	TNT_Think_CSm	Think	0	5	0	0	0	0	1000	1	THINK	-16	0	0	0	0	0	0
3	2023-03-23	12:43:55	13:36:32	13:36:32:261	115	3	TNT_Think_CSm	TNT_Think_CSm	0	5	0	0	0	0	5000	1	Cue15.jpg	-16	0	0	0	0	0	0
3	2023-03-23	12:43:55	13:36:32	13:36:32:782	115	4	TNT_Think_CSm	Intrusion	0	500	3000	0	81	1	504	1	How <b>often</b> did you <b>think</b> about the <b>scene</b>?   <center><br><b>NEVER (1)    BRIEFLY (2)   OFTEN (3) </b>	-16	0	0	0	0	0	0
3	2023-03-23	12:43:55	13:36:36	13:36:36:763	116	1	TNT_NoThink_CSp	fixation	0	5	1500	0	0	1	1495	1	+	-15	0	0	0	0	0	0
3	2023-03-23	12:43:55	13:36:37	13:36:37:778	116	2	TNT_NoThink_CSp	NoThink	0	5	0	0	0	0	1000	1	DON'T THINK	-16	0	0	0	0	0	0
3	2023-03-23	12:43:55	13:36:42	13:36:42:795	116	3	TNT_NoThink_CSp	TNT_NoThink_CSp	0	5	0	0	0	0	5000	3	Cue21.jpg	-16	0	0	0	0	0	0
3	2023-03-23	12:43:55	13:36:43	13:36:43:679	116	4	TNT_NoThink_CSp	Intrusion	0	1000	3000	0	79	1	866	1	How <b>often</b> did you <b>think</b> about the <b>scene</b>?   <center><br><b>NEVER (1)    BRIEFLY (2)   OFTEN (3) </b>	-16	0	0	0	0	0	0
3	2023-03-23	12:43:55	13:36:46	13:36:46:801	117	1	TNT_NoThink_CSp	fixation	0	5	1000	0	0	1	995	1	+	-16	0	0	0	0	0	0
3	2023-03-23	12:43:55	13:36:47	13:36:47:815	117	2	TNT_NoThink_CSp	NoThink	0	5	0	0	0	0	1000	1	DON'T THINK	-16	0	0	0	0	0	0
3	2023-03-23	12:43:55	13:36:52	13:36:52:831	117	3	TNT_NoThink_CSp	TNT_NoThink_CSp	0	5	0	0	0	0	5000	2	Cue34.jpg	-16	0	0	0	0	0	0
3	2023-03-23	12:43:55	13:36:54	13:36:54:129	117	4	TNT_NoThink_CSp	Intrusion	0	1500	3000	0	79	1	1280	1	How <b>often</b> did you <b>think</b> about the <b>scene</b>?   <center><br><b>NEVER (1)    BRIEFLY (2)   OFTEN (3) </b>	-16	0	0	0	0	0	0
3	2023-03-23	12:43:55	13:36:56	13:36:56:335	118	1	TNT_NoThink_CSm	fixation	0	5	500	0	0	1	495	1	+	-16	0	0	0	0	0	0
3	2023-03-23	12:43:55	13:36:57	13:36:57:348	118	2	TNT_NoThink_CSm	NoThink	0	5	0	0	0	0	1000	1	DON'T THINK	-16	0	0	0	0	0	0
3	2023-03-23	12:43:55	13:37:02	13:37:02:365	118	3	TNT_NoThink_CSm	TNT_NoThink_CSm	0	5	0	0	0	0	5000	2	Cue16.jpg	-16	0	0	0	0	0	0
3	2023-03-23	12:43:55	13:37:03	13:37:03:425	118	4	TNT_NoThink_CSm	Intrusion	0	500	3000	0	79	1	1042	1	How <b>often</b> did you <b>think</b> about the <b>scene</b>?   <center><br><b>NEVER (1)    BRIEFLY (2)   OFTEN (3) </b>	-16	0	0	0	0	0	0
3	2023-03-23	12:43:55	13:37:06	13:37:06:369	119	1	TNT_Object_CSm	fixation	0	5	1000	0	0	1	995	1	+	-16	0	0	0	0	0	0
3	2023-03-23	12:43:55	13:37:07	13:37:07:382	119	2	TNT_Object_CSm	Passive	0	5	0	0	0	0	1000	1	VIEW	-16	0	0	0	0	0	0
3	2023-03-23	12:43:55	13:37:12	13:37:12:399	119	3	TNT_Object_CSm	TNT_Object_CSm	0	500	0	0	0	0	5000	1	Object7.jpg	-16	0	0	0	0	0	0
3	2023-03-23	12:43:55	13:37:13	13:37:13:398	120	1	TNT_Think_CSp	fixation	0	5	500	0	0	1	495	1	+	-7	0	0	0	0	0	0
3	2023-03-23	12:43:55	13:37:14	13:37:14:415	120	2	TNT_Think_CSp	Think	0	5	0	0	0	0	1000	1	THINK	-16	0	0	0	0	0	0
3	2023-03-23	12:43:55	13:37:19	13:37:19:433	120	3	TNT_Think_CSp	TNT_Think_CSp	0	5	0	0	0	0	5000	2	Cue8.jpg	-16	0	0	0	0	0	0
3	2023-03-23	12:43:55	13:37:20	13:37:20:193	120	4	TNT_Think_CSp	Intrusion	0	1000	3000	0	81	1	743	1	How <b>often</b> did you <b>think</b> about the <b>scene</b>?   <center><br><b>NEVER (1)    BRIEFLY (2)   OFTEN (3) </b>	-16	0	0	0	0	0	0
3	2023-03-23	12:43:55	13:37:24	13:37:24:937	121	1	TNT_NoThink_CSp	fixation	0	5	1500	0	0	1	1495	1	+	-16	0	0	0	0	0	0
3	2023-03-23	12:43:55	13:37:25	13:37:25:950	121	2	TNT_NoThink_CSp	NoThink	0	5	0	0	0	0	1000	1	DON'T THINK	-16	0	0	0	0	0	0
3	2023-03-23	12:43:55	13:37:30	13:37:30:967	121	3	TNT_NoThink_CSp	TNT_NoThink_CSp	0	5	0	0	0	0	5000	5	Cue22.jpg	-16	0	0	0	0	0	0
3	2023-03-23	12:43:55	13:37:30	13:37:30:721	121	4	TNT_NoThink_CSp	Intrusion	0	500	3000	0	79	1	737	1	How <b>often</b> did you <b>think</b> about the <b>scene</b>?   <center><br><b>NEVER (1)    BRIEFLY (2)   OFTEN (3) </b>	-16	0	0	0	0	0	0
3	2023-03-23	12:43:55	13:37:34	13:37:34:970	122	1	TNT_Think_CSp	fixation	0	5	1000	0	0	1	995	1	+	-16	0	0	0	0	0	0
3	2023-03-23	12:43:55	13:37:35	13:37:35:983	122	2	TNT_Think_CSp	Think	0	5	0	0	0	0	1000	1	THINK	-16	0	0	0	0	0	0
3	2023-03-23	12:43:55	13:37:40	13:37:40:00	122	3	TNT_Think_CSp	TNT_Think_CSp	0	5	0	0	0	0	5000	1	Cue6.jpg	-16	0	0	0	0	0	0
3	2023-03-23	12:43:55	13:37:41	13:37:41:233	122	4	TNT_Think_CSp	Intrusion	0	1000	3000	0	79	1	1215	1	How <b>often</b> did you <b>think</b> about the <b>scene</b>?   <center><br><b>NEVER (1)    BRIEFLY (2)   OFTEN (3) </b>	-16	0	0	0	0	0	0
3	2023-03-23	12:43:55	13:37:44	13:37:44:504	123	1	TNT_NoThink_CSm	fixation	0	5	1500	0	0	1	1495	1	+	-16	0	0	0	0	0	0
3	2023-03-23	12:43:55	13:37:45	13:37:45:518	123	2	TNT_NoThink_CSm	NoThink	0	5	0	0	0	0	1000	1	DON'T THINK	-16	0	0	0	0	0	0
3	2023-03-23	12:43:55	13:37:50	13:37:50:534	123	3	TNT_NoThink_CSm	TNT_NoThink_CSm	0	5	0	0	0	0	5000	5	Cue3.jpg	-16	0	0	0	0	0	0
3	2023-03-23	12:43:55	13:37:51	13:37:51:409	123	4	TNT_NoThink_CSm	Intrusion	0	1500	3000	0	79	1	857	1	How <b>often</b> did you <b>think</b> about the <b>scene</b>?   <center><br><b>NEVER (1)    BRIEFLY (2)   OFTEN (3) </b>	-16	0	0	0	0	0	0
3	2023-03-23	12:43:55	13:37:54	13:37:54:038	124	1	TNT_Think_CSm	fixation	0	5	500	0	0	1	495	1	+	-16	0	0	0	0	0	0
3	2023-03-23	12:43:55	13:37:55	13:37:55:051	124	2	TNT_Think_CSm	Think	0	5	0	0	0	0	1000	1	THINK	-16	0	0	0	0	0	0
3	2023-03-23	12:43:55	13:38:00	13:38:00:068	124	3	TNT_Think_CSm	TNT_Think_CSm	0	5	0	0	0	0	5000	3	Cue28.jpg	-16	0	0	0	0	0	0
3	2023-03-23	12:43:55	13:38:01	13:38:01:073	124	4	TNT_Think_CSm	Intrusion	0	1000	3000	0	81	1	987	1	How <b>often</b> did you <b>think</b> about the <b>scene</b>?   <center><br><b>NEVER (1)    BRIEFLY (2)   OFTEN (3) </b>	-16	0	0	0	0	0	0
3	2023-03-23	12:43:55	13:38:04	13:38:04:072	125	1	TNT_Think_CSm	fixation	0	5	1000	0	0	1	995	1	+	-16	0	0	0	0	0	0
3	2023-03-23	12:43:55	13:38:05	13:38:05:085	125	2	TNT_Think_CSm	Think	0	5	0	0	0	0	1000	1	THINK	-16	0	0	0	0	0	0
3	2023-03-23	12:43:55	13:38:10	13:38:10:102	125	3	TNT_Think_CSm	TNT_Think_CSm	0	5	0	0	0	0	5000	5	Cue26.jpg	-16	0	0	0	0	0	0
3	2023-03-23	12:43:55	13:38:11	13:38:11:105	125	4	TNT_Think_CSm	Intrusion	0	500	3000	0	81	1	985	1	How <b>often</b> did you <b>think</b> about the <b>scene</b>?   <center><br><b>NEVER (1)    BRIEFLY (2)   OFTEN (3) </b>	-16	0	0	0	0	0	0
3	2023-03-23	12:43:55	13:38:14	13:38:14:606	126	1	TNT_Think_CSp	fixation	0	5	1500	0	0	1	1495	1	+	-16	0	0	0	0	0	0
3	2023-03-23	12:43:55	13:38:15	13:38:15:619	126	2	TNT_Think_CSp	Think	0	5	0	0	0	0	1000	1	THINK	-16	0	0	0	0	0	0
3	2023-03-23	12:43:55	13:38:20	13:38:20:636	126	3	TNT_Think_CSp	TNT_Think_CSp	0	5	0	0	0	0	5000	6	Cue11.jpg	-16	0	0	0	0	0	0
3	2023-03-23	12:43:55	13:38:21	13:38:21:585	126	4	TNT_Think_CSp	Intrusion	0	1500	3000	0	81	1	931	1	How <b>often</b> did you <b>think</b> about the <b>scene</b>?   <center><br><b>NEVER (1)    BRIEFLY (2)   OFTEN (3) </b>	-16	0	0	0	0	0	0
3	2023-03-23	12:43:55	13:38:24	13:38:24:140	127	1	TNT_Object_CSm	fixation	0	5	500	0	0	1	495	1	+	-16	0	0	0	0	0	0
3	2023-03-23	12:43:55	13:38:25	13:38:25:153	127	2	TNT_Object_CSm	Passive	0	5	0	0	0	0	1000	1	VIEW	-16	0	0	0	0	0	0
3	2023-03-23	12:43:55	13:38:30	13:38:30:170	127	3	TNT_Object_CSm	TNT_Object_CSm	0	1500	0	0	0	0	5000	4	Object6.jpg	-16	0	0	0	0	0	0
3	2023-03-23	12:43:55	13:38:33	13:38:33:170	128	1	TNT_Object_CSp	fixation	0	5	1500	0	0	1	1495	1	+	-8	0	0	0	0	0	0
3	2023-03-23	12:43:55	13:38:34	13:38:34:187	128	2	TNT_Object_CSp	Passive	0	5	0	0	0	0	1000	1	VIEW	-16	0	0	0	0	0	0
3	2023-03-23	12:43:55	13:38:39	13:38:39:204	128	3	TNT_Object_CSp	TNT_Object_CSp	0	1500	0	0	0	0	5000	2	Object2.jpg	-16	0	0	0	0	0	0
3	2023-03-23	12:43:55	13:38:41	13:38:41:703	129	1	TNT_Object_CSp	fixation	0	5	1000	0	0	1	995	1	+	-8	0	0	0	0	0	0
3	2023-03-23	12:43:55	13:38:42	13:38:42:721	129	2	TNT_Object_CSp	Passive	0	5	0	0	0	0	1000	1	VIEW	-16	0	0	0	0	0	0
3	2023-03-23	12:43:55	13:38:47	13:38:47:737	129	3	TNT_Object_CSp	TNT_Object_CSp	0	500	0	0	0	0	5000	1	Object8.jpg	-16	0	0	0	0	0	0
3	2023-03-23	12:43:55	13:38:48	13:38:48:737	130	1	TNT_Think_CSp	fixation	0	5	500	0	0	1	495	1	+	-8	0	0	0	0	0	0
3	2023-03-23	12:43:55	13:38:49	13:38:49:754	130	2	TNT_Think_CSp	Think	0	5	0	0	0	0	1000	1	THINK	-16	0	0	0	0	0	0
3	2023-03-23	12:43:55	13:38:54	13:38:54:771	130	3	TNT_Think_CSp	TNT_Think_CSp	0	5	0	0	0	0	5000	5	Cue24.jpg	-16	0	0	0	0	0	0
3	2023-03-23	12:43:55	13:38:55	13:38:55:393	130	4	TNT_Think_CSp	Intrusion	0	500	3000	0	81	1	604	1	How <b>often</b> did you <b>think</b> about the <b>scene</b>?   <center><br><b>NEVER (1)    BRIEFLY (2)   OFTEN (3) </b>	-16	0	0	0	0	0	0
3	2023-03-23	12:43:55	13:38:58	13:38:58:775	131	1	TNT_Object_CSm	fixation	0	5	1000	0	0	1	995	1	+	-16	0	0	0	0	0	0
3	2023-03-23	12:43:55	13:38:59	13:38:59:788	131	2	TNT_Object_CSm	Passive	0	5	0	0	0	0	1000	1	VIEW	-16	0	0	0	0	0	0
3	2023-03-23	12:43:55	13:39:04	13:39:04:805	131	3	TNT_Object_CSm	TNT_Object_CSm	0	500	0	0	0	0	5000	3	Object3.jpg	-16	0	0	0	0	0	0
3	2023-03-23	12:43:55	13:39:05	13:39:05:803	132	1	TNT_Object_CSp	fixation	0	5	500	0	0	1	495	1	+	-5	0	0	0	0	0	0
3	2023-03-23	12:43:55	13:39:06	13:39:06:822	132	2	TNT_Object_CSp	Passive	0	5	0	0	0	0	1000	1	VIEW	-16	0	0	0	0	0	0
3	2023-03-23	12:43:55	13:39:11	13:39:11:839	132	3	TNT_Object_CSp	TNT_Object_CSp	0	1000	0	0	0	0	5000	3	Object4.jpg	-16	0	0	0	0	0	0
3	2023-03-23	12:43:55	13:39:14	13:39:14:338	133	1	TNT_Object_CSp	fixation	0	5	1500	0	0	1	1495	1	+	-8	0	0	0	0	0	0
3	2023-03-23	12:43:55	13:39:15	13:39:15:356	133	2	TNT_Object_CSp	Passive	0	5	0	0	0	0	1000	1	VIEW	-16	0	0	0	0	0	0
3	2023-03-23	12:43:55	13:39:20	13:39:20:372	133	3	TNT_Object_CSp	TNT_Object_CSp	0	1500	0	0	0	0	5000	4	Object1.jpg	-16	0	0	0	0	0	0
3	2023-03-23	12:43:55	13:39:23	13:39:23:372	134	1	TNT_Object_CSm	fixation	0	5	1500	0	0	1	1495	1	+	-7	0	0	0	0	0	0
