subject	date	time	currenttime	currenttime_plus_ms	blocknum	trialnum	blockcode	trialcode	pretrialpause	posttrialpause	trialduration	trialtimeout	response	correct	latency	stimulusnumber1	stimulusitem1	stimulusonset1
1	2023-03-17	12:42:11	12:43:17	12:43:17:538	2	1	Reminder_NoThink_CSm	fixation	0	5	1500	0	0	1	1495	1	+	-16
1	2023-03-17	12:42:11	12:43:22	12:43:22:575	2	2	Reminder_NoThink_CSm	NoThink_CSm	0	5	0	0	0	0	5000	1	+	-16
1	2023-03-17	12:42:11	12:43:28	12:43:28:457	2	3	Reminder_NoThink_CSm	valence	0	5	0	0	5	0	5807	1	I found these images to be...	-4
1	2023-03-17	12:42:11	12:43:33	12:43:33:374	2	4	Reminder_NoThink_CSm	expectancy	0	1500	0	0	0	0	4860	1	When you saw the <b>object-scene</b>,   to what <b>degree (0-100%)</b> did you expect the <b>unpleasant sound to occur</b>?	-3
1	2023-03-17	12:42:11	12:43:35	12:43:35:875	3	1	Reminder_NoThink_CSp	fixation	0	5	1000	0	0	1	995	1	+	-9
1	2023-03-17	12:42:11	12:43:40	12:43:40:893	3	2	Reminder_NoThink_CSp	NoThink_CSp	0	5	0	0	0	0	5000	1	+	-16
1	2023-03-17	12:42:11	12:43:46	12:43:46:474	3	3	Reminder_NoThink_CSp	valence	0	5	0	0	20	0	5531	1	I found these images to be...	-16
1	2023-03-17	12:42:11	12:43:52	12:43:52:525	3	4	Reminder_NoThink_CSp	expectancy	0	500	0	0	20	0	5979	1	When you saw the <b>object-scene</b>,   to what <b>degree (0-100%)</b> did you expect the <b>unpleasant sound to occur</b>?	-8
1	2023-03-17	12:42:11	12:43:53	12:43:53:512	4	1	Reminder_Baseline_CSp	fixation	0	5	500	0	0	1	495	1	+	-9
1	2023-03-17	12:42:11	12:43:58	12:43:58:528	4	2	Reminder_Baseline_CSp	Baseline_CSp	0	5	0	0	0	0	5000	1	+	-16
1	2023-03-17	12:42:11	12:44:01	12:44:01:556	4	3	Reminder_Baseline_CSp	valence	0	5	0	0	30	0	2977	1	I found these images to be...	-16
1	2023-03-17	12:42:11	12:44:04	12:44:04:259	4	4	Reminder_Baseline_CSp	expectancy	0	1000	0	0	60	0	2648	1	When you saw the <b>object-scene</b>,   to what <b>degree (0-100%)</b> did you expect the <b>unpleasant sound to occur</b>?	2
1	2023-03-17	12:42:11	12:44:06	12:44:06:245	5	1	PracticeItems_Think	fixation	0	5	1000	0	0	1	995	1	+	-8
1	2023-03-17	12:42:11	12:44:11	12:44:11:262	5	2	PracticeItems_Think	PracticeItems_Think	0	5	0	0	0	0	5000	1	+	-16
1	2023-03-17	12:42:11	12:44:14	12:44:14:226	5	3	PracticeItems_Think	valence	0	5	0	0	9	0	2939	1	I found these images to be...	-16
1	2023-03-17	12:42:11	12:44:20	12:44:20:227	5	4	PracticeItems_Think	expectancy	0	1500	0	0	30	0	5956	1	When you saw the <b>object-scene</b>,   to what <b>degree (0-100%)</b> did you expect the <b>unpleasant sound to occur</b>?	0
1	2023-03-17	12:42:11	12:44:23	12:44:23:230	6	1	Reminder_Baseline_CSm	fixation	0	5	1500	0	0	1	1495	1	+	-9
1	2023-03-17	12:42:11	12:44:28	12:44:28:246	6	2	Reminder_Baseline_CSm	Baseline_CSm	0	5	0	0	0	0	5000	1	+	-16
1	2023-03-17	12:42:11	12:44:33	12:44:33:511	6	3	Reminder_Baseline_CSm	valence	0	5	0	0	30	0	5234	1	I found these images to be...	-16
1	2023-03-17	12:42:11	12:44:37	12:44:37:861	6	4	Reminder_Baseline_CSm	expectancy	0	1000	0	0	20	0	4303	1	When you saw the <b>object-scene</b>,   to what <b>degree (0-100%)</b> did you expect the <b>unpleasant sound to occur</b>?	0
1	2023-03-17	12:42:11	12:44:39	12:44:39:361	7	1	Reminder_Baseline_CSp	fixation	0	5	500	0	0	1	495	1	+	-15
1	2023-03-17	12:42:11	12:44:44	12:44:44:378	7	2	Reminder_Baseline_CSp	Baseline_CSp	0	5	0	0	0	0	5000	1	+	-16
1	2023-03-17	12:42:11	12:44:48	12:44:48:979	7	3	Reminder_Baseline_CSp	valence	0	5	0	0	5	0	4572	1	I found these images to be...	-16
1	2023-03-17	12:42:11	12:44:51	12:44:51:396	7	4	Reminder_Baseline_CSp	expectancy	0	500	0	0	70	0	2380	1	When you saw the <b>object-scene</b>,   to what <b>degree (0-100%)</b> did you expect the <b>unpleasant sound to occur</b>?	-12
1	2023-03-17	12:42:11	12:44:53	12:44:53:395	8	1	Reminder_Objects_CSm	fixation	0	5	1500	0	0	1	1495	1	+	-15
1	2023-03-17	12:42:11	12:44:58	12:44:58:412	8	2	Reminder_Objects_CSm	Objects_CSm	0	5	0	0	0	0	5000	3	Object7.jpg	-14
1	2023-03-17	12:42:11	12:45:01	12:45:01:946	8	3	Reminder_Objects_CSm	expectancy_object	0	500	0	0	0	0	3514	1	When you saw the <b>object</b>,   to what <b>degree (0-100%)</b> did you expect the <b>unpleasant sound to occur</b>?	-16
1	2023-03-17	12:42:11	12:45:03	12:45:03:445	9	1	Reminder_Think_CSm	fixation	0	5	1000	0	0	1	995	1	+	-14
1	2023-03-17	12:42:11	12:45:08	12:45:08:463	9	2	Reminder_Think_CSm	Think_CSm	0	5	0	0	0	0	5000	1	+	-16
1	2023-03-17	12:42:11	12:45:13	12:45:13:113	9	3	Reminder_Think_CSm	valence	0	5	0	0	6	0	4623	1	I found these images to be...	-16
1	2023-03-17	12:42:11	12:45:16	12:45:16:447	9	4	Reminder_Think_CSm	expectancy	0	1000	0	0	10	0	3284	1	When you saw the <b>object-scene</b>,   to what <b>degree (0-100%)</b> did you expect the <b>unpleasant sound to occur</b>?	-12
1	2023-03-17	12:42:11	12:45:17	12:45:17:948	10	1	Reminder_NoThink_CSm	fixation	0	5	500	0	0	1	495	1	+	-10
1	2023-03-17	12:42:11	12:45:22	12:45:22:967	10	2	Reminder_NoThink_CSm	NoThink_CSm	0	5	0	0	0	0	5000	1	+	-16
1	2023-03-17	12:42:11	12:45:27	12:45:27:397	10	3	Reminder_NoThink_CSm	valence	0	5	0	0	17	0	4379	1	I found these images to be...	-16
1	2023-03-17	12:42:11	12:45:32	12:45:32:548	10	4	Reminder_NoThink_CSm	expectancy	0	1500	0	0	70	0	5104	1	When you saw the <b>object-scene</b>,   to what <b>degree (0-100%)</b> did you expect the <b>unpleasant sound to occur</b>?	-8
1	2023-03-17	12:42:11	12:45:34	12:45:34:547	11	1	PracticeItems_Think	fixation	0	5	500	0	0	1	495	1	+	-15
1	2023-03-17	12:42:11	12:45:39	12:45:39:565	11	2	PracticeItems_Think	PracticeItems_Think	0	5	0	0	0	0	5000	1	+	-13
1	2023-03-17	12:42:11	12:45:44	12:45:44:599	11	3	PracticeItems_Think	valence	0	5	0	0	30	0	5003	1	I found these images to be...	-16
1	2023-03-17	12:42:11	12:45:50	12:45:50:383	11	4	PracticeItems_Think	expectancy	0	500	0	0	10	0	5751	1	When you saw the <b>object-scene</b>,   to what <b>degree (0-100%)</b> did you expect the <b>unpleasant sound to occur</b>?	-12
1	2023-03-17	12:42:11	12:45:52	12:45:52:382	12	1	Reminder_Think_CSp	fixation	0	5	1500	0	0	1	1495	1	+	-14
1	2023-03-17	12:42:11	12:45:57	12:45:57:399	12	2	Reminder_Think_CSp	Think_CSp	0	5	0	0	0	0	5000	1	+	-16
1	2023-03-17	12:42:11	12:46:00	12:46:00:917	12	3	Reminder_Think_CSp	valence	0	5	0	0	0	0	3487	1	I found these images to be...	-16
1	2023-03-17	12:42:11	12:46:04	12:46:04:217	12	4	Reminder_Think_CSp	expectancy	0	500	0	0	80	0	3258	1	When you saw the <b>object-scene</b>,   to what <b>degree (0-100%)</b> did you expect the <b>unpleasant sound to occur</b>?	-12
1	2023-03-17	12:42:11	12:46:05	12:46:05:716	13	1	Reminder_NoThink_CSm	fixation	0	5	1000	0	0	1	995	1	+	-15
1	2023-03-17	12:42:11	12:46:10	12:46:10:736	13	2	Reminder_NoThink_CSm	NoThink_CSm	0	5	0	0	0	0	5000	1	+	-14
1	2023-03-17	12:42:11	12:46:16	12:46:16:684	13	3	Reminder_NoThink_CSm	valence	0	5	0	0	0	0	5897	1	I found these images to be...	-16
1	2023-03-17	12:42:11	12:46:19	12:46:19:618	13	4	Reminder_NoThink_CSm	expectancy	0	1500	0	0	10	0	2890	1	When you saw the <b>object-scene</b>,   to what <b>degree (0-100%)</b> did you expect the <b>unpleasant sound to occur</b>?	-8
1	2023-03-17	12:42:11	12:46:22	12:46:22:620	14	1	Reminder_NoThink_CSm	fixation	0	5	1500	0	0	1	1495	1	+	-9
1	2023-03-17	12:42:11	12:46:27	12:46:27:637	14	2	Reminder_NoThink_CSm	NoThink_CSm	0	5	0	0	0	0	5000	1	+	-16
1	2023-03-17	12:42:11	12:46:30	12:46:30:851	14	3	Reminder_NoThink_CSm	valence	0	5	0	0	40	0	3164	1	I found these images to be...	-16
1	2023-03-17	12:42:11	12:46:33	12:46:33:302	14	4	Reminder_NoThink_CSm	expectancy	0	1000	0	0	100	0	2386	1	When you saw the <b>object-scene</b>,   to what <b>degree (0-100%)</b> did you expect the <b>unpleasant sound to occur</b>?	-8
1	2023-03-17	12:42:11	12:46:35	12:46:35:305	15	1	PracticeItems_NoThink	fixation	0	5	1000	0	0	1	995	1	+	-9
1	2023-03-17	12:42:11	12:46:40	12:46:40:321	15	2	PracticeItems_NoThink	PracticeItems_NoThink	0	5	0	0	0	0	5000	1	+	-16
1	2023-03-17	12:42:11	12:46:45	12:46:45:902	15	3	PracticeItems_NoThink	valence	0	5	0	0	16	0	5529	1	I found these images to be...	-16
1	2023-03-17	12:42:11	12:46:51	12:46:51:386	15	4	PracticeItems_NoThink	expectancy	0	1000	0	0	60	0	5415	1	When you saw the <b>object-scene</b>,   to what <b>degree (0-100%)</b> did you expect the <b>unpleasant sound to occur</b>?	-8
1	2023-03-17	12:42:11	12:46:52	12:46:52:868	16	1	Reminder_Baseline_CSm	fixation	0	5	500	0	0	1	495	1	+	-15
1	2023-03-17	12:42:11	12:46:57	12:46:57:886	16	2	Reminder_Baseline_CSm	Baseline_CSm	0	5	0	0	0	0	5000	1	+	-14
1	2023-03-17	12:42:11	12:47:00	12:47:00:337	16	3	Reminder_Baseline_CSm	valence	0	5	0	0	9	0	2425	1	I found these images to be...	-16
1	2023-03-17	12:42:11	12:47:05	12:47:05:104	16	4	Reminder_Baseline_CSm	expectancy	0	1500	0	0	85	0	4726	1	When you saw the <b>object-scene</b>,   to what <b>degree (0-100%)</b> did you expect the <b>unpleasant sound to occur</b>?	-12
1	2023-03-17	12:42:11	12:47:08	12:47:08:107	17	1	Reminder_Objects_CSm	fixation	0	5	1500	0	0	1	1495	1	+	-7
1	2023-03-17	12:42:11	12:47:13	12:47:13:122	17	2	Reminder_Objects_CSm	Objects_CSm	0	5	0	0	0	0	5000	4	Object6.jpg	-16
1	2023-03-17	12:42:11	12:47:16	12:47:16:087	17	3	Reminder_Objects_CSm	expectancy_object	0	1500	0	0	10	0	2910	1	When you saw the <b>object</b>,   to what <b>degree (0-100%)</b> did you expect the <b>unpleasant sound to occur</b>?	-16
1	2023-03-17	12:42:11	12:47:18	12:47:18:074	18	1	Reminder_Think_CSm	fixation	0	5	500	0	0	1	495	1	+	-7
1	2023-03-17	12:42:11	12:47:23	12:47:23:091	18	2	Reminder_Think_CSm	Think_CSm	0	5	0	0	0	0	5000	1	+	-16
1	2023-03-17	12:42:11	12:47:26	12:47:26:938	18	3	Reminder_Think_CSm	valence	0	5	0	0	0	0	3800	1	I found these images to be...	-16
1	2023-03-17	12:42:11	12:47:31	12:47:31:722	18	4	Reminder_Think_CSm	expectancy	0	500	0	0	20	0	4717	1	When you saw the <b>object-scene</b>,   to what <b>degree (0-100%)</b> did you expect the <b>unpleasant sound to occur</b>?	-8
1	2023-03-17	12:42:11	12:47:33	12:47:33:207	19	1	Reminder_NoThink_CSp	fixation	0	5	1000	0	0	1	995	1	+	-8
1	2023-03-17	12:42:11	12:47:38	12:47:38:225	19	2	Reminder_NoThink_CSp	NoThink_CSp	0	5	0	0	0	0	5000	1	+	-16
1	2023-03-17	12:42:11	12:47:42	12:47:42:839	19	3	Reminder_NoThink_CSp	valence	0	5	0	0	39	0	4585	1	I found these images to be...	-16
1	2023-03-17	12:42:11	12:47:46	12:47:46:639	19	4	Reminder_NoThink_CSp	expectancy	0	500	0	0	10	0	3728	1	When you saw the <b>object-scene</b>,   to what <b>degree (0-100%)</b> did you expect the <b>unpleasant sound to occur</b>?	0
1	2023-03-17	12:42:11	12:47:47	12:47:47:625	20	1	Reminder_Think_CSm	fixation	0	5	500	0	0	1	495	1	+	-8
1	2023-03-17	12:42:11	12:47:52	12:47:52:642	20	2	Reminder_Think_CSm	Think_CSm	0	5	0	0	0	0	5000	1	+	-16
1	2023-03-17	12:42:11	12:47:55	12:47:55:07	20	3	Reminder_Think_CSm	valence	0	5	0	0	20	0	2334	1	I found these images to be...	-16
1	2023-03-17	12:42:11	12:47:57	12:47:57:440	20	4	Reminder_Think_CSm	expectancy	0	1500	0	0	90	0	2360	1	When you saw the <b>object-scene</b>,   to what <b>degree (0-100%)</b> did you expect the <b>unpleasant sound to occur</b>?	0
1	2023-03-17	12:42:11	12:47:59	12:47:59:926	21	1	Reminder_Objects_CSm	fixation	0	5	1000	0	0	1	995	1	+	1
1	2023-03-17	12:42:11	12:48:04	12:48:04:942	21	2	Reminder_Objects_CSm	Objects_CSm	0	5	0	0	0	0	5000	2	Object5.jpg	-16
1	2023-03-17	12:42:11	12:48:07	12:48:07:624	21	3	Reminder_Objects_CSm	expectancy_object	0	1000	0	0	0	0	2659	1	When you saw the <b>object</b>,   to what <b>degree (0-100%)</b> did you expect the <b>unpleasant sound to occur</b>?	-16
1	2023-03-17	12:42:11	12:48:10	12:48:10:127	22	1	Reminder_Objects_CSp	fixation	0	5	1500	0	0	1	1495	1	+	-8
1	2023-03-17	12:42:11	12:48:15	12:48:15:143	22	2	Reminder_Objects_CSp	Objects_CSp	0	5	0	0	0	0	5000	2	Object1.jpg	-16
1	2023-03-17	12:42:11	12:48:18	12:48:18:908	22	3	Reminder_Objects_CSp	expectancy_object	0	500	0	0	100	0	3714	1	When you saw the <b>object</b>,   to what <b>degree (0-100%)</b> did you expect the <b>unpleasant sound to occur</b>?	-16
1	2023-03-17	12:42:11	12:48:20	12:48:20:894	23	1	Reminder_Think_CSp	fixation	0	5	1500	0	0	1	1495	1	+	-8
1	2023-03-17	12:42:11	12:48:25	12:48:25:911	23	2	Reminder_Think_CSp	Think_CSp	0	5	0	0	0	0	5000	1	+	-16
1	2023-03-17	12:42:11	12:48:31	12:48:31:825	23	3	Reminder_Think_CSp	valence	0	5	0	0	20	0	5867	1	I found these images to be...	-16
1	2023-03-17	12:42:11	12:48:36	12:48:36:326	23	4	Reminder_Think_CSp	expectancy	0	1000	0	0	40	0	4412	1	When you saw the <b>object-scene</b>,   to what <b>degree (0-100%)</b> did you expect the <b>unpleasant sound to occur</b>?	-8
1	2023-03-17	12:42:11	12:48:38	12:48:38:311	24	1	Reminder_Think_CSp	fixation	0	5	1000	0	0	1	995	1	+	-9
1	2023-03-17	12:42:11	12:48:43	12:48:43:329	24	2	Reminder_Think_CSp	Think_CSp	0	5	0	0	0	0	5000	1	+	-16
1	2023-03-17	12:42:11	12:48:50	12:48:50:777	24	3	Reminder_Think_CSp	valence	0	5	0	0	20	0	7425	1	I found these images to be...	-16
1	2023-03-17	12:42:11	12:48:54	12:48:54:700	24	4	Reminder_Think_CSp	expectancy	0	500	0	0	94	0	3846	1	When you saw the <b>object-scene</b>,   to what <b>degree (0-100%)</b> did you expect the <b>unpleasant sound to occur</b>?	0
1	2023-03-17	12:42:11	12:48:55	12:48:55:680	25	1	Reminder_Baseline_CSp	fixation	0	5	500	0	0	1	495	1	+	-8
1	2023-03-17	12:42:11	12:49:00	12:49:00:697	25	2	Reminder_Baseline_CSp	Baseline_CSp	0	5	0	0	0	0	5000	1	+	-16
1	2023-03-17	12:42:11	12:49:04	12:49:04:545	25	3	Reminder_Baseline_CSp	valence	0	5	0	0	6	0	3825	1	I found these images to be...	-16
1	2023-03-17	12:42:11	12:49:08	12:49:08:361	25	4	Reminder_Baseline_CSp	expectancy	0	1500	0	0	20	0	3750	1	When you saw the <b>object-scene</b>,   to what <b>degree (0-100%)</b> did you expect the <b>unpleasant sound to occur</b>?	0
1	2023-03-17	12:42:11	12:49:10	12:49:10:347	26	1	Reminder_Baseline_CSm	fixation	0	5	500	0	0	1	495	1	+	-9
1	2023-03-17	12:42:11	12:49:15	12:49:15:364	26	2	Reminder_Baseline_CSm	Baseline_CSm	0	5	0	0	0	0	5000	1	+	-16
1	2023-03-17	12:42:11	12:49:21	12:49:21:545	26	3	Reminder_Baseline_CSm	valence	0	5	0	0	29	0	6158	1	I found these images to be...	-16
1	2023-03-17	12:42:11	12:49:26	12:49:26:213	26	4	Reminder_Baseline_CSm	expectancy	0	1000	0	0	100	0	4629	1	When you saw the <b>object-scene</b>,   to what <b>degree (0-100%)</b> did you expect the <b>unpleasant sound to occur</b>?	0
1	2023-03-17	12:42:11	12:49:28	12:49:28:212	27	1	Reminder_Think_CSp	fixation	0	5	1000	0	0	1	995	1	+	-15
1	2023-03-17	12:42:11	12:49:33	12:49:33:232	27	2	Reminder_Think_CSp	Think_CSp	0	5	0	0	0	0	5000	1	+	-16
1	2023-03-17	12:42:11	12:49:35	12:49:35:863	27	3	Reminder_Think_CSp	valence	0	5	0	0	15	0	2602	1	I found these images to be...	-16
1	2023-03-17	12:42:11	12:49:39	12:49:39:713	27	4	Reminder_Think_CSp	expectancy	0	500	0	0	0	0	3784	1	When you saw the <b>object-scene</b>,   to what <b>degree (0-100%)</b> did you expect the <b>unpleasant sound to occur</b>?	0
1	2023-03-17	12:42:11	12:49:41	12:49:41:699	28	1	Reminder_NoThink_CSm	fixation	0	5	1500	0	0	1	1495	1	+	-3
1	2023-03-17	12:42:11	12:49:46	12:49:46:716	28	2	Reminder_NoThink_CSm	NoThink_CSm	0	5	0	0	0	0	5000	1	+	-16
1	2023-03-17	12:42:11	12:49:49	12:49:49:409	28	3	Reminder_NoThink_CSm	valence	0	5	0	0	30	0	2646	1	I found these images to be...	-16
1	2023-03-17	12:42:11	12:49:53	12:49:53:765	28	4	Reminder_NoThink_CSm	expectancy	0	1000	0	0	1	0	4330	1	When you saw the <b>object-scene</b>,   to what <b>degree (0-100%)</b> did you expect the <b>unpleasant sound to occur</b>?	0
1	2023-03-17	12:42:11	12:49:56	12:49:56:264	29	1	Reminder_Objects_CSp	fixation	0	5	1500	0	0	1	1495	1	+	-15
1	2023-03-17	12:42:11	12:50:01	12:50:01:281	29	2	Reminder_Objects_CSp	Objects_CSp	0	5	0	0	0	0	5000	3	Object8.jpg	-16
1	2023-03-17	12:42:11	12:50:03	12:50:03:932	29	3	Reminder_Objects_CSp	expectancy_object	0	1000	0	0	70	0	2630	1	When you saw the <b>object</b>,   to what <b>degree (0-100%)</b> did you expect the <b>unpleasant sound to occur</b>?	-16
1	2023-03-17	12:42:11	12:50:05	12:50:05:932	30	1	Reminder_NoThink_CSm	fixation	0	5	1000	0	0	1	995	1	+	-15
1	2023-03-17	12:42:11	12:50:10	12:50:10:948	30	2	Reminder_NoThink_CSm	NoThink_CSm	0	5	0	0	0	0	5000	1	+	-16
1	2023-03-17	12:42:11	12:50:19	12:50:19:099	30	3	Reminder_NoThink_CSm	valence	0	5	0	0	20	0	8131	1	I found these images to be...	-16
1	2023-03-17	12:42:11	12:50:25	12:50:25:766	30	4	Reminder_NoThink_CSm	expectancy	0	1500	0	0	10	0	6596	1	When you saw the <b>object-scene</b>,   to what <b>degree (0-100%)</b> did you expect the <b>unpleasant sound to occur</b>?	-12
1	2023-03-17	12:42:11	12:50:27	12:50:27:752	31	1	Reminder_Think_CSm	fixation	0	5	500	0	0	1	495	1	+	-8
1	2023-03-17	12:42:11	12:50:32	12:50:32:769	31	2	Reminder_Think_CSm	Think_CSm	0	5	0	0	0	0	5000	1	+	-16
1	2023-03-17	12:42:11	12:50:35	12:50:35:483	31	3	Reminder_Think_CSm	valence	0	5	0	0	20	0	2665	1	I found these images to be...	-16
1	2023-03-17	12:42:11	12:50:38	12:50:38:951	31	4	Reminder_Think_CSm	expectancy	0	1500	0	0	100	0	3420	1	When you saw the <b>object-scene</b>,   to what <b>degree (0-100%)</b> did you expect the <b>unpleasant sound to occur</b>?	-7
1	2023-03-17	12:42:11	12:50:41	12:50:41:953	32	1	PracticeItems_NoThink	fixation	0	5	1500	0	0	1	1495	1	+	-9
1	2023-03-17	12:42:11	12:50:46	12:50:46:970	32	2	PracticeItems_NoThink	PracticeItems_NoThink	0	5	0	0	0	0	5000	1	+	-16
1	2023-03-17	12:42:11	12:50:51	12:50:51:184	32	3	PracticeItems_NoThink	valence	0	5	0	0	25	0	4160	1	I found these images to be...	-16
1	2023-03-17	12:42:11	12:50:55	12:50:55:435	32	4	PracticeItems_NoThink	expectancy	0	1000	0	0	80	0	4207	1	When you saw the <b>object-scene</b>,   to what <b>degree (0-100%)</b> did you expect the <b>unpleasant sound to occur</b>?	-8
1	2023-03-17	12:42:11	12:50:57	12:50:57:437	33	1	Reminder_NoThink_CSp	fixation	0	5	1000	0	0	1	995	1	+	-9
1	2023-03-17	12:42:11	12:51:02	12:51:02:454	33	2	Reminder_NoThink_CSp	NoThink_CSp	0	5	0	0	0	0	5000	1	+	-16
1	2023-03-17	12:42:11	12:51:05	12:51:05:051	33	3	Reminder_NoThink_CSp	valence	0	5	0	0	40	0	2548	1	I found these images to be...	-16
1	2023-03-17	12:42:11	12:51:09	12:51:09:335	33	4	Reminder_NoThink_CSp	expectancy	0	500	0	0	10	0	4235	1	When you saw the <b>object-scene</b>,   to what <b>degree (0-100%)</b> did you expect the <b>unpleasant sound to occur</b>?	-8
1	2023-03-17	12:42:11	12:51:10	12:51:10:337	34	1	Reminder_NoThink_CSp	fixation	0	5	500	0	0	1	495	1	+	-8
1	2023-03-17	12:42:11	12:51:15	12:51:15:355	34	2	Reminder_NoThink_CSp	NoThink_CSp	0	5	0	0	0	0	5000	1	+	-16
1	2023-03-17	12:42:11	12:51:18	12:51:18:436	34	3	Reminder_NoThink_CSp	valence	0	5	0	0	30	0	3031	1	I found these images to be...	-16
1	2023-03-17	12:42:11	12:51:21	12:51:21:769	34	4	Reminder_NoThink_CSp	expectancy	0	1000	0	0	0	0	3250	1	When you saw the <b>object-scene</b>,   to what <b>degree (0-100%)</b> did you expect the <b>unpleasant sound to occur</b>?	-7
1	2023-03-17	12:42:11	12:51:24	12:51:24:255	35	1	Reminder_Baseline_CSm	fixation	0	5	1500	0	0	1	1495	1	+	-8
1	2023-03-17	12:42:11	12:51:29	12:51:29:272	35	2	Reminder_Baseline_CSm	Baseline_CSm	0	5	0	0	0	0	5000	1	+	-16
1	2023-03-17	12:42:11	12:51:31	12:51:31:420	35	3	Reminder_Baseline_CSm	valence	0	5	0	0	0	0	2122	1	I found these images to be...	-16
1	2023-03-17	12:42:11	12:51:36	12:51:36:354	35	4	Reminder_Baseline_CSm	expectancy	0	1500	0	0	20	0	4891	1	When you saw the <b>object-scene</b>,   to what <b>degree (0-100%)</b> did you expect the <b>unpleasant sound to occur</b>?	0
1	2023-03-17	12:42:11	12:51:38	12:51:38:857	36	1	Reminder_Objects_CSp	fixation	0	5	1000	0	0	1	995	1	+	-9
1	2023-03-17	12:42:11	12:51:43	12:51:43:873	36	2	Reminder_Objects_CSp	Objects_CSp	0	5	0	0	0	0	5000	4	Object4.jpg	-16
1	2023-03-17	12:42:11	12:51:46	12:51:46:904	36	3	Reminder_Objects_CSp	expectancy_object	0	1500	0	0	0	0	2976	1	When you saw the <b>object</b>,   to what <b>degree (0-100%)</b> did you expect the <b>unpleasant sound to occur</b>?	-16
1	2023-03-17	12:42:11	12:51:48	12:51:48:891	37	1	Reminder_Think_CSm	fixation	0	5	500	0	0	1	495	1	+	-8
1	2023-03-17	12:42:11	12:51:53	12:51:53:907	37	2	Reminder_Think_CSm	Think_CSm	0	5	0	0	0	0	5000	1	+	-16
1	2023-03-17	12:42:11	12:51:56	12:51:56:038	37	3	Reminder_Think_CSm	valence	0	5	0	0	0	0	2079	1	I found these images to be...	-16
1	2023-03-17	12:42:11	12:51:58	12:51:58:338	37	4	Reminder_Think_CSm	expectancy	0	500	0	0	0	0	2233	1	When you saw the <b>object-scene</b>,   to what <b>degree (0-100%)</b> did you expect the <b>unpleasant sound to occur</b>?	-6
1	2023-03-17	12:42:11	12:51:59	12:51:59:821	38	1	Reminder_Think_CSm	fixation	0	5	1000	0	0	1	995	1	+	-15
1	2023-03-17	12:42:11	12:52:04	12:52:04:839	38	2	Reminder_Think_CSm	Think_CSm	0	5	0	0	0	0	5000	1	+	-14
1	2023-03-17	12:42:11	12:52:07	12:52:07:632	38	3	Reminder_Think_CSm	valence	0	5	0	0	25	0	2745	1	I found these images to be...	-16
1	2023-03-17	12:42:11	12:52:12	12:52:12:472	38	4	Reminder_Think_CSm	expectancy	0	1000	0	0	80	0	4777	1	When you saw the <b>object-scene</b>,   to what <b>degree (0-100%)</b> did you expect the <b>unpleasant sound to occur</b>?	0
1	2023-03-17	12:42:11	12:52:13	12:52:13:959	39	1	Reminder_NoThink_CSp	fixation	0	5	500	0	0	1	495	1	+	-8
1	2023-03-17	12:42:11	12:52:18	12:52:18:976	39	2	Reminder_NoThink_CSp	NoThink_CSp	0	5	0	0	0	0	5000	1	+	-16
1	2023-03-17	12:42:11	12:52:21	12:52:21:606	39	3	Reminder_NoThink_CSp	valence	0	5	0	0	35	0	2579	1	I found these images to be...	-16
1	2023-03-17	12:42:11	12:52:25	12:52:25:524	39	4	Reminder_NoThink_CSp	expectancy	0	500	0	0	70	0	3873	1	When you saw the <b>object-scene</b>,   to what <b>degree (0-100%)</b> did you expect the <b>unpleasant sound to occur</b>?	-6
1	2023-03-17	12:42:11	12:52:27	12:52:27:523	40	1	Reminder_NoThink_CSp	fixation	0	5	1500	0	0	1	1495	1	+	-15
1	2023-03-17	12:42:11	12:52:32	12:52:32:540	40	2	Reminder_NoThink_CSp	NoThink_CSp	0	5	0	0	0	0	5000	1	+	-16
1	2023-03-17	12:42:11	12:52:35	12:52:35:074	40	3	Reminder_NoThink_CSp	valence	0	5	0	0	1	0	2507	1	I found these images to be...	-16
1	2023-03-17	12:42:11	12:52:39	12:52:39:841	40	4	Reminder_NoThink_CSp	expectancy	0	1500	0	0	10	0	4717	1	When you saw the <b>object-scene</b>,   to what <b>degree (0-100%)</b> did you expect the <b>unpleasant sound to occur</b>?	-12
1	2023-03-17	12:42:11	12:52:41	12:52:41:840	41	1	Reminder_Think_CSp	fixation	0	5	500	0	0	1	495	1	+	-15
1	2023-03-17	12:42:11	12:52:46	12:52:46:858	41	2	Reminder_Think_CSp	Think_CSp	0	5	0	0	0	0	5000	1	+	-16
1	2023-03-17	12:42:11	12:52:50	12:52:50:142	41	3	Reminder_Think_CSp	valence	0	5	0	0	0	0	3262	1	I found these images to be...	-16
1	2023-03-17	12:42:11	12:52:53	12:52:53:109	41	4	Reminder_Think_CSp	expectancy	0	1500	0	0	30	0	2929	1	When you saw the <b>object-scene</b>,   to what <b>degree (0-100%)</b> did you expect the <b>unpleasant sound to occur</b>?	-12
1	2023-03-17	12:42:11	12:52:56	12:52:56:108	42	1	Reminder_Baseline_CSp	fixation	0	5	1500	0	0	1	1495	1	+	-14
1	2023-03-17	12:42:11	12:53:01	12:53:01:128	42	2	Reminder_Baseline_CSp	Baseline_CSp	0	5	0	0	0	0	5000	1	+	-16
1	2023-03-17	12:42:11	12:53:03	12:53:03:825	42	3	Reminder_Baseline_CSp	valence	0	5	0	0	30	0	2650	1	I found these images to be...	-16
1	2023-03-17	12:42:11	12:53:06	12:53:06:093	42	4	Reminder_Baseline_CSp	expectancy	0	1000	0	0	69	0	2204	1	When you saw the <b>object-scene</b>,   to what <b>degree (0-100%)</b> did you expect the <b>unpleasant sound to occur</b>?	-7
1	2023-03-17	12:42:11	12:53:08	12:53:08:096	43	1	Reminder_Baseline_CSp	fixation	0	5	1000	0	0	1	995	1	+	-9
1	2023-03-17	12:42:11	12:53:13	12:53:13:112	43	2	Reminder_Baseline_CSp	Baseline_CSp	0	5	0	0	0	0	5000	1	+	-16
1	2023-03-17	12:42:11	12:53:15	12:53:15:127	43	3	Reminder_Baseline_CSp	valence	0	5	0	0	40	0	1986	1	I found these images to be...	-16
1	2023-03-17	12:42:11	12:53:20	12:53:20:427	43	4	Reminder_Baseline_CSp	expectancy	0	500	0	0	40	0	5264	1	When you saw the <b>object-scene</b>,   to what <b>degree (0-100%)</b> did you expect the <b>unpleasant sound to occur</b>?	0
1	2023-03-17	12:42:11	12:53:22	12:53:22:426	44	1	Reminder_Objects_CSp	fixation	0	5	1500	0	0	1	1495	1	+	-14
1	2023-03-17	12:42:11	12:53:27	12:53:27:444	44	2	Reminder_Objects_CSp	Objects_CSp	0	5	0	0	0	0	5000	1	Object3.jpg	-15
1	2023-03-17	12:42:11	12:53:29	12:53:29:827	44	3	Reminder_Objects_CSp	expectancy_object	0	1500	0	0	10	0	2364	1	When you saw the <b>object</b>,   to what <b>degree (0-100%)</b> did you expect the <b>unpleasant sound to occur</b>?	-16
1	2023-03-17	12:42:11	12:53:31	12:53:31:827	45	1	Reminder_Baseline_CSp	fixation	0	5	500	0	0	1	495	1	+	-15
1	2023-03-17	12:42:11	12:53:36	12:53:36:844	45	2	Reminder_Baseline_CSp	Baseline_CSp	0	5	0	0	0	0	5000	1	+	-14
1	2023-03-17	12:42:11	12:53:43	12:53:43:544	45	3	Reminder_Baseline_CSp	valence	0	5	0	0	30	0	6651	1	I found these images to be...	-16
1	2023-03-17	12:42:11	12:53:49	12:53:49:245	45	4	Reminder_Baseline_CSp	expectancy	0	1500	0	0	90	0	5630	1	When you saw the <b>object-scene</b>,   to what <b>degree (0-100%)</b> did you expect the <b>unpleasant sound to occur</b>?	-11
1	2023-03-17	12:42:11	12:53:51	12:53:51:729	46	1	Reminder_Think_CSp	fixation	0	5	1000	0	0	1	995	1	+	-10
1	2023-03-17	12:42:11	12:53:56	12:53:56:748	46	2	Reminder_Think_CSp	Think_CSp	0	5	0	0	0	0	5000	1	+	-16
1	2023-03-17	12:42:11	12:54:01	12:54:01:292	46	3	Reminder_Think_CSp	valence	0	5	0	0	25	0	4494	1	I found these images to be...	-16
1	2023-03-17	12:42:11	12:54:05	12:54:05:863	46	4	Reminder_Think_CSp	expectancy	0	1000	0	0	90	0	4536	1	When you saw the <b>object-scene</b>,   to what <b>degree (0-100%)</b> did you expect the <b>unpleasant sound to occur</b>?	0
1	2023-03-17	12:42:11	12:54:07	12:54:07:362	47	1	Reminder_Baseline_CSm	fixation	0	5	500	0	0	1	495	1	+	-15
1	2023-03-17	12:42:11	12:54:12	12:54:12:380	47	2	Reminder_Baseline_CSm	Baseline_CSm	0	5	0	0	0	0	5000	1	+	-14
1	2023-03-17	12:42:11	12:54:15	12:54:15:946	47	3	Reminder_Baseline_CSm	valence	0	5	0	0	20	0	3515	1	I found these images to be...	-16
1	2023-03-17	12:42:11	12:54:18	12:54:18:781	47	4	Reminder_Baseline_CSm	expectancy	0	500	0	0	70	0	2788	1	When you saw the <b>object-scene</b>,   to what <b>degree (0-100%)</b> did you expect the <b>unpleasant sound to occur</b>?	-11
1	2023-03-17	12:42:11	12:54:20	12:54:20:780	48	1	Reminder_Baseline_CSm	fixation	0	5	1500	0	0	1	1495	1	+	-14
1	2023-03-17	12:42:11	12:54:25	12:54:25:797	48	2	Reminder_Baseline_CSm	Baseline_CSm	0	5	0	0	0	0	5000	1	+	-13
1	2023-03-17	12:42:11	12:54:30	12:54:30:798	48	3	Reminder_Baseline_CSm	valence	0	5	0	0	15	0	4970	1	I found these images to be...	-16
1	2023-03-17	12:42:11	12:54:33	12:54:33:815	48	4	Reminder_Baseline_CSm	expectancy	0	1000	0	0	10	0	2977	1	When you saw the <b>object-scene</b>,   to what <b>degree (0-100%)</b> did you expect the <b>unpleasant sound to occur</b>?	-12
1	2023-03-17	12:42:11	12:54:35	12:54:35:814	49	1	Reminder_Objects_CSm	fixation	0	5	1000	0	0	1	995	1	+	-15
1	2023-03-17	12:42:11	12:54:40	12:54:40:831	49	2	Reminder_Objects_CSm	Objects_CSm	0	5	0	0	0	0	5000	1	Object2.jpg	-16
1	2023-03-17	12:42:11	12:54:43	12:54:43:199	49	3	Reminder_Objects_CSm	expectancy_object	0	1000	0	0	0	0	2344	1	When you saw the <b>object</b>,   to what <b>degree (0-100%)</b> did you expect the <b>unpleasant sound to occur</b>?	-16
1	2023-03-17	12:42:11	12:58:05	12:58:05:501	2	1	Practice_Think	fixation	0	5	500	0	0	1	495	1	+	-8
1	2023-03-17	12:42:11	12:58:06	12:58:06:519	2	2	Practice_Think	Think	0	5	0	0	0	0	1000	1	THINK	-16
1	2023-03-17	12:42:11	12:58:11	12:58:11:535	2	3	Practice_Think	ThinkCue	0	5	0	0	0	1	5000	1	Cue37.jpg	-16
1	2023-03-17	12:42:11	12:58:14	12:58:14:060	2	4	Practice_Think	Intrusion	0	500	3000	0	0	0	2500	1	How <b>often</b> did you <b>think</b> about the <b>scene</b>?   <center><br><b>NEVER (1)    BRIEFLY (2)   OFTEN (3) </b>	-13
1	2023-03-17	12:42:11	12:58:16	12:58:16:039	3	1	Practice_NoThink	fixation	0	5	1500	0	0	1	1495	1	+	-9
1	2023-03-17	12:42:11	12:58:17	12:58:17:053	3	2	Practice_NoThink	NoThink	0	5	0	0	0	0	1000	1	DON'T THINK	-16
1	2023-03-17	12:42:11	12:58:22	12:58:22:070	3	3	Practice_NoThink	NoThinkCue	0	5	0	0	0	1	5000	1	Cue39.jpg	-16
1	2023-03-17	12:42:11	12:58:23	12:58:23:200	3	4	Practice_NoThink	Intrusion	0	1500	3000	0	81	1	1114	1	How <b>often</b> did you <b>think</b> about the <b>scene</b>?   <center><br><b>NEVER (1)    BRIEFLY (2)   OFTEN (3) </b>	-16
1	2023-03-17	12:42:11	12:58:26	12:58:26:074	4	1	Practice_NoThink	fixation	0	5	1000	0	0	1	995	1	+	-16
1	2023-03-17	12:42:11	12:58:27	12:58:27:087	4	2	Practice_NoThink	NoThink	0	5	0	0	0	0	1000	1	DON'T THINK	-16
1	2023-03-17	12:42:11	12:58:32	12:58:32:103	4	3	Practice_NoThink	NoThinkCue	0	5	0	0	0	1	5000	2	Cue40.jpg	-16
1	2023-03-17	12:42:11	12:58:33	12:58:33:360	4	4	Practice_NoThink	Intrusion	0	1000	3000	0	80	1	1240	1	How <b>often</b> did you <b>think</b> about the <b>scene</b>?   <center><br><b>NEVER (1)    BRIEFLY (2)   OFTEN (3) </b>	-16
1	2023-03-17	12:42:11	12:58:36	12:58:36:108	5	1	Practice_Think	fixation	0	5	1000	0	0	1	995	1	+	-16
1	2023-03-17	12:42:11	12:58:37	12:58:37:121	5	2	Practice_Think	Think	0	5	0	0	0	0	1000	1	THINK	-16
1	2023-03-17	12:42:11	12:58:42	12:58:42:138	5	3	Practice_Think	ThinkCue	0	5	0	0	0	1	5000	2	Cue38.jpg	-16
1	2023-03-17	12:42:11	12:58:43	12:58:43:646	5	4	Practice_Think	Intrusion	0	1500	3000	0	0	0	1500	1	How <b>often</b> did you <b>think</b> about the <b>scene</b>?   <center><br><b>NEVER (1)    BRIEFLY (2)   OFTEN (3) </b>	-16
1	2023-03-17	12:42:11	13:06:07	13:06:07:717	6	1	Practice_Betweenblocks1	Practice_Betweenblocks1	0	5	0	0	57	1	442541	1	<center><br><br><br><br>This is the end of the first practice round. <br><br>There will be 2 more practice rounds.  <br><br> Please await further instruction from the experimenter.	-16
1	2023-03-17	12:42:11	13:06:09	13:06:09:217	7	1	Practice_Think	fixation	0	5	1500	0	0	1	1495	1	+	-8
1	2023-03-17	12:42:11	13:06:10	13:06:10:232	7	2	Practice_Think	Think	0	5	0	0	0	0	1000	1	THINK	-16
1	2023-03-17	12:42:11	13:06:15	13:06:15:248	7	3	Practice_Think	ThinkCue	0	5	0	0	0	1	5000	1	Cue37.jpg	-16
1	2023-03-17	12:42:11	13:06:16	13:06:16:017	7	4	Practice_Think	Intrusion	0	1000	3000	0	81	1	751	1	How <b>often</b> did you <b>think</b> about the <b>scene</b>?   <center><br><b>NEVER (1)    BRIEFLY (2)   OFTEN (3) </b>	-16
1	2023-03-17	12:42:11	13:06:18	13:06:18:752	8	1	Practice_Think	fixation	0	5	500	0	0	1	495	1	+	-16
1	2023-03-17	12:42:11	13:06:19	13:06:19:766	8	2	Practice_Think	Think	0	5	0	0	0	0	1000	1	THINK	-16
1	2023-03-17	12:42:11	13:06:24	13:06:24:783	8	3	Practice_Think	ThinkCue	0	5	0	0	0	1	5000	2	Cue38.jpg	-16
1	2023-03-17	12:42:11	13:06:25	13:06:25:665	8	4	Practice_Think	Intrusion	0	500	3000	0	81	1	864	1	How <b>often</b> did you <b>think</b> about the <b>scene</b>?   <center><br><b>NEVER (1)    BRIEFLY (2)   OFTEN (3) </b>	-16
1	2023-03-17	12:42:11	13:06:28	13:06:28:287	9	1	Practice_NoThink	fixation	0	5	500	0	0	1	495	1	+	-16
1	2023-03-17	12:42:11	13:06:29	13:06:29:300	9	2	Practice_NoThink	NoThink	0	5	0	0	0	0	1000	1	DON'T THINK	-16
1	2023-03-17	12:42:11	13:06:34	13:06:34:317	9	3	Practice_NoThink	NoThinkCue	0	5	0	0	0	1	5000	1	Cue39.jpg	-16
1	2023-03-17	12:42:11	13:06:35	13:06:35:025	9	4	Practice_NoThink	Intrusion	0	1000	3000	0	80	1	691	1	How <b>often</b> did you <b>think</b> about the <b>scene</b>?   <center><br><b>NEVER (1)    BRIEFLY (2)   OFTEN (3) </b>	-16
1	2023-03-17	12:42:11	13:06:38	13:06:38:821	10	1	Practice_NoThink	fixation	0	5	1500	0	0	1	1495	1	+	-16
1	2023-03-17	12:42:11	13:06:39	13:06:39:834	10	2	Practice_NoThink	NoThink	0	5	0	0	0	0	1000	1	DON'T THINK	-16
1	2023-03-17	12:42:11	13:06:44	13:06:44:850	10	3	Practice_NoThink	NoThinkCue	0	5	0	0	0	1	5000	2	Cue40.jpg	-16
1	2023-03-17	12:42:11	13:06:45	13:06:45:617	10	4	Practice_NoThink	Intrusion	0	500	3000	0	80	1	749	1	How <b>often</b> did you <b>think</b> about the <b>scene</b>?   <center><br><b>NEVER (1)    BRIEFLY (2)   OFTEN (3) </b>	-16
1	2023-03-17	12:42:11	13:06:55	13:06:55:216	11	1	Practice_Betweenblocks2	Practice_Betweenblocks2	0	5	0	0	57	1	7315	1	<center><br><br><br><br>This is the end of the second practice round. <br><br>There will be 1 more practice round.  <br><br> Please await further instruction from the experimenter.	-7
1	2023-03-17	12:42:11	13:06:56	13:06:56:218	12	1	Practice_NoThink	fixation	0	5	1000	0	0	1	995	1	+	-9
1	2023-03-17	12:42:11	13:06:57	13:06:57:235	12	2	Practice_NoThink	NoThink	0	5	0	0	0	0	1000	1	DON'T THINK	-16
1	2023-03-17	12:42:11	13:07:02	13:07:02:252	12	3	Practice_NoThink	NoThinkCue	0	5	0	0	0	1	5000	1	Cue39.jpg	-16
1	2023-03-17	12:42:11	13:07:03	13:07:03:409	12	4	Practice_NoThink	Intrusion	0	1500	3000	0	80	1	1140	1	How <b>often</b> did you <b>think</b> about the <b>scene</b>?   <center><br><b>NEVER (1)    BRIEFLY (2)   OFTEN (3) </b>	-16
1	2023-03-17	12:42:11	13:07:05	13:07:05:756	13	1	Practice_Think	fixation	0	5	500	0	0	1	495	1	+	-16
1	2023-03-17	12:42:11	13:07:06	13:07:06:768	13	2	Practice_Think	Think	0	5	0	0	0	0	1000	1	THINK	-16
1	2023-03-17	12:42:11	13:07:11	13:07:11:786	13	3	Practice_Think	ThinkCue	0	5	0	0	0	1	5000	1	Cue37.jpg	-16
1	2023-03-17	12:42:11	13:07:12	13:07:12:401	13	4	Practice_Think	Intrusion	0	1000	3000	0	81	1	598	1	How <b>often</b> did you <b>think</b> about the <b>scene</b>?   <center><br><b>NEVER (1)    BRIEFLY (2)   OFTEN (3) </b>	-16
1	2023-03-17	12:42:11	13:07:15	13:07:15:790	14	1	Practice_NoThink	fixation	0	5	1000	0	0	1	995	1	+	-16
1	2023-03-17	12:42:11	13:07:16	13:07:16:803	14	2	Practice_NoThink	NoThink	0	5	0	0	0	0	1000	1	DON'T THINK	-16
1	2023-03-17	12:42:11	13:07:21	13:07:21:820	14	3	Practice_NoThink	NoThinkCue	0	5	0	0	0	1	5000	2	Cue40.jpg	-16
1	2023-03-17	12:42:11	13:07:22	13:07:22:705	14	4	Practice_NoThink	Intrusion	0	500	3000	0	80	1	868	1	How <b>often</b> did you <b>think</b> about the <b>scene</b>?   <center><br><b>NEVER (1)    BRIEFLY (2)   OFTEN (3) </b>	-16
1	2023-03-17	12:42:11	13:07:26	13:07:26:324	15	1	Practice_Think	fixation	0	5	1500	0	0	1	1495	1	+	-16
1	2023-03-17	12:42:11	13:07:27	13:07:27:337	15	2	Practice_Think	Think	0	5	0	0	0	0	1000	1	THINK	-16
1	2023-03-17	12:42:11	13:07:32	13:07:32:353	15	3	Practice_Think	ThinkCue	0	5	0	0	0	1	5000	2	Cue38.jpg	-16
1	2023-03-17	12:42:11	13:07:32	13:07:32:945	15	4	Practice_Think	Intrusion	0	1500	3000	0	81	1	574	1	How <b>often</b> did you <b>think</b> about the <b>scene</b>?   <center><br><b>NEVER (1)    BRIEFLY (2)   OFTEN (3) </b>	-16
1	2023-03-17	12:42:11	13:13:34	13:13:34:502	2	1	TNT_Object_CSp	fixation	0	5	500	0	0	1	495	1	+	-8
1	2023-03-17	12:42:11	13:13:35	13:13:35:518	2	2	TNT_Object_CSp	Passive	0	5	0	0	0	0	1000	1	VIEW	-16
1	2023-03-17	12:42:11	13:13:40	13:13:40:535	2	3	TNT_Object_CSp	TNT_Object_CSp	0	1000	0	0	0	0	5000	4	Object4.jpg	-16
1	2023-03-17	12:42:11	13:13:42	13:13:42:534	3	1	TNT_Think_CSm	fixation	0	5	1000	0	0	1	995	1	+	-9
1	2023-03-17	12:42:11	13:13:43	13:13:43:552	3	2	TNT_Think_CSm	Think	0	5	0	0	0	0	1000	1	THINK	-16
1	2023-03-17	12:42:11	13:13:48	13:13:48:569	3	3	TNT_Think_CSm	TNT_Think_CSm	0	5	0	0	0	0	5000	5	Cue9.jpg	-16
1	2023-03-17	12:42:11	13:13:50	13:13:50:938	3	4	TNT_Think_CSm	Intrusion	0	1500	3000	0	81	1	1351	1	How <b>often</b> did you <b>think</b> about the <b>scene</b>?   <center><br><b>NEVER (1)    BRIEFLY (2)   OFTEN (3) </b>	-16
1	2023-03-17	12:42:11	13:13:53	13:13:53:073	4	1	TNT_NoThink_CSm	fixation	0	5	1500	0	0	1	1495	1	+	-9
1	2023-03-17	12:42:11	13:13:54	13:13:54:086	4	2	TNT_NoThink_CSm	NoThink	0	5	0	0	0	0	1000	1	DON'T THINK	-16
1	2023-03-17	12:42:11	13:13:59	13:13:59:103	4	3	TNT_NoThink_CSm	TNT_NoThink_CSm	0	5	0	0	0	0	5000	3	Cue10.jpg	-16
1	2023-03-17	12:42:11	13:14:00	13:14:00:226	4	4	TNT_NoThink_CSm	Intrusion	0	500	3000	0	81	1	1105	1	How <b>often</b> did you <b>think</b> about the <b>scene</b>?   <center><br><b>NEVER (1)    BRIEFLY (2)   OFTEN (3) </b>	-16
1	2023-03-17	12:42:11	13:14:03	13:14:03:606	5	1	TNT_NoThink_CSm	fixation	0	5	1500	0	0	1	1495	1	+	-9
1	2023-03-17	12:42:11	13:14:04	13:14:04:620	5	2	TNT_NoThink_CSm	NoThink	0	5	0	0	0	0	1000	1	DON'T THINK	-16
1	2023-03-17	12:42:11	13:14:09	13:14:09:637	5	3	TNT_NoThink_CSm	TNT_NoThink_CSm	0	5	0	0	0	0	5000	5	Cue25.jpg	-16
1	2023-03-17	12:42:11	13:14:11	13:14:11:818	5	4	TNT_NoThink_CSm	Intrusion	0	1000	3000	0	80	1	1163	1	How <b>often</b> did you <b>think</b> about the <b>scene</b>?   <center><br><b>NEVER (1)    BRIEFLY (2)   OFTEN (3) </b>	-16
1	2023-03-17	12:42:11	13:14:13	13:14:13:641	6	1	TNT_Think_CSp	fixation	0	5	1000	0	0	1	995	1	+	-16
1	2023-03-17	12:42:11	13:14:14	13:14:14:654	6	2	TNT_Think_CSp	Think	0	5	0	0	0	0	1000	1	THINK	-16
1	2023-03-17	12:42:11	13:14:19	13:14:19:671	6	3	TNT_Think_CSp	TNT_Think_CSp	0	5	0	0	0	0	5000	5	Cue20.jpg	-16
1	2023-03-17	12:42:11	13:14:20	13:14:20:626	6	4	TNT_Think_CSp	Intrusion	0	1000	3000	0	81	1	937	1	How <b>often</b> did you <b>think</b> about the <b>scene</b>?   <center><br><b>NEVER (1)    BRIEFLY (2)   OFTEN (3) </b>	-16
1	2023-03-17	12:42:11	13:14:23	13:14:23:175	7	1	TNT_Object_CSm	fixation	0	5	500	0	0	1	495	1	+	-16
1	2023-03-17	12:42:11	13:14:24	13:14:24:188	7	2	TNT_Object_CSm	Passive	0	5	0	0	0	0	1000	1	VIEW	-16
1	2023-03-17	12:42:11	13:14:29	13:14:29:205	7	3	TNT_Object_CSm	TNT_Object_CSm	0	1000	0	0	0	0	5000	2	Object5.jpg	-16
1	2023-03-17	12:42:11	13:14:30	13:14:30:705	8	1	TNT_NoThink_CSm	fixation	0	5	500	0	0	1	495	1	+	-9
1	2023-03-17	12:42:11	13:14:31	13:14:31:722	8	2	TNT_NoThink_CSm	NoThink	0	5	0	0	0	0	1000	1	DON'T THINK	-16
1	2023-03-17	12:42:11	13:14:36	13:14:36:738	8	3	TNT_NoThink_CSm	TNT_NoThink_CSm	0	5	0	0	0	0	5000	2	Cue8.jpg	-16
1	2023-03-17	12:42:11	13:14:37	13:14:37:618	8	4	TNT_NoThink_CSm	Intrusion	0	1500	3000	0	80	1	862	1	How <b>often</b> did you <b>think</b> about the <b>scene</b>?   <center><br><b>NEVER (1)    BRIEFLY (2)   OFTEN (3) </b>	-16
1	2023-03-17	12:42:11	13:14:41	13:14:41:242	9	1	TNT_NoThink_CSm	fixation	0	5	1500	0	0	1	1495	1	+	-9
1	2023-03-17	12:42:11	13:14:42	13:14:42:256	9	2	TNT_NoThink_CSm	NoThink	0	5	0	0	0	0	1000	1	DON'T THINK	-16
1	2023-03-17	12:42:11	13:14:47	13:14:47:273	9	3	TNT_NoThink_CSm	TNT_NoThink_CSm	0	5	0	0	0	0	5000	6	Cue7.jpg	-16
1	2023-03-17	12:42:11	13:14:48	13:14:48:194	9	4	TNT_NoThink_CSm	Intrusion	0	500	3000	0	80	1	904	1	How <b>often</b> did you <b>think</b> about the <b>scene</b>?   <center><br><b>NEVER (1)    BRIEFLY (2)   OFTEN (3) </b>	-16
1	2023-03-17	12:42:11	13:14:51	13:14:51:277	10	1	TNT_NoThink_CSp	fixation	0	5	1000	0	0	1	995	1	+	-16
1	2023-03-17	12:42:11	13:14:52	13:14:52:290	10	2	TNT_NoThink_CSp	NoThink	0	5	0	0	0	0	1000	1	DON'T THINK	-16
1	2023-03-17	12:42:11	13:14:57	13:14:57:306	10	3	TNT_NoThink_CSp	TNT_NoThink_CSp	0	5	0	0	0	0	5000	6	Cue14.jpg	-16
1	2023-03-17	12:42:11	13:14:58	13:14:58:130	10	4	TNT_NoThink_CSp	Intrusion	0	1000	3000	0	80	1	806	1	How <b>often</b> did you <b>think</b> about the <b>scene</b>?   <center><br><b>NEVER (1)    BRIEFLY (2)   OFTEN (3) </b>	-16
1	2023-03-17	12:42:11	13:15:01	13:15:01:310	11	1	TNT_Object_CSm	fixation	0	5	1000	0	0	1	995	1	+	-8
1	2023-03-17	12:42:11	13:15:02	13:15:02:324	11	2	TNT_Object_CSm	Passive	0	5	0	0	0	0	1000	1	VIEW	-16
1	2023-03-17	12:42:11	13:15:07	13:15:07:340	11	3	TNT_Object_CSm	TNT_Object_CSm	0	1500	0	0	0	0	5000	3	Object7.jpg	-16
1	2023-03-17	12:42:11	13:15:09	13:15:09:340	12	1	TNT_Think_CSm	fixation	0	5	500	0	0	1	495	1	+	-9
1	2023-03-17	12:42:11	13:15:10	13:15:10:357	12	2	TNT_Think_CSm	Think	0	5	0	0	0	0	1000	1	THINK	-16
1	2023-03-17	12:42:11	13:15:15	13:15:15:374	12	3	TNT_Think_CSm	TNT_Think_CSm	0	5	0	0	0	0	5000	2	Cue6.jpg	-16
1	2023-03-17	12:42:11	13:15:16	13:15:16:402	12	4	TNT_Think_CSm	Intrusion	0	500	3000	0	81	1	1010	1	How <b>often</b> did you <b>think</b> about the <b>scene</b>?   <center><br><b>NEVER (1)    BRIEFLY (2)   OFTEN (3) </b>	-16
1	2023-03-17	12:42:11	13:15:20	13:15:20:878	13	1	TNT_Think_CSp	fixation	0	5	1500	0	0	1	1495	1	+	-8
1	2023-03-17	12:42:11	13:15:21	13:15:21:891	13	2	TNT_Think_CSp	Think	0	5	0	0	0	0	1000	1	THINK	-16
1	2023-03-17	12:42:11	13:15:26	13:15:26:908	13	3	TNT_Think_CSp	TNT_Think_CSp	0	5	0	0	0	0	5000	6	Cue34.jpg	-16
1	2023-03-17	12:42:11	13:15:26	13:15:26:706	13	4	TNT_Think_CSp	Intrusion	0	1500	3000	0	81	1	780	1	How <b>often</b> did you <b>think</b> about the <b>scene</b>?   <center><br><b>NEVER (1)    BRIEFLY (2)   OFTEN (3) </b>	-16
1	2023-03-17	12:42:11	13:15:30	13:15:30:412	14	1	TNT_NoThink_CSp	fixation	0	5	1500	0	0	1	1495	1	+	-3
1	2023-03-17	12:42:11	13:15:31	13:15:31:425	14	2	TNT_NoThink_CSp	NoThink	0	5	0	0	0	0	1000	1	DON'T THINK	-16
1	2023-03-17	12:42:11	13:15:36	13:15:36:442	14	3	TNT_NoThink_CSp	TNT_NoThink_CSp	0	5	0	0	0	0	5000	5	Cue15.jpg	-16
1	2023-03-17	12:42:11	13:15:37	13:15:37:122	14	4	TNT_NoThink_CSp	Intrusion	0	1500	3000	0	80	1	662	1	How <b>often</b> did you <b>think</b> about the <b>scene</b>?   <center><br><b>NEVER (1)    BRIEFLY (2)   OFTEN (3) </b>	-16
1	2023-03-17	12:42:11	13:15:40	13:15:40:946	15	1	TNT_Object_CSm	fixation	0	5	500	0	0	1	495	1	+	-8
1	2023-03-17	12:42:11	13:15:41	13:15:41:959	15	2	TNT_Object_CSm	Passive	0	5	0	0	0	0	1000	1	VIEW	-16
1	2023-03-17	12:42:11	13:15:46	13:15:46:976	15	3	TNT_Object_CSm	TNT_Object_CSm	0	500	0	0	0	0	5000	4	Object6.jpg	-16
1	2023-03-17	12:42:11	13:15:47	13:15:47:475	16	1	TNT_Think_CSp	fixation	0	5	1000	0	0	1	995	1	+	-9
1	2023-03-17	12:42:11	13:15:48	13:15:48:493	16	2	TNT_Think_CSp	Think	0	5	0	0	0	0	1000	1	THINK	-16
1	2023-03-17	12:42:11	13:15:53	13:15:53:510	16	3	TNT_Think_CSp	TNT_Think_CSp	0	5	0	0	0	0	5000	4	Cue17.jpg	-16
1	2023-03-17	12:42:11	13:15:54	13:15:54:610	16	4	TNT_Think_CSp	Intrusion	0	500	3000	0	81	1	1082	1	How <b>often</b> did you <b>think</b> about the <b>scene</b>?   <center><br><b>NEVER (1)    BRIEFLY (2)   OFTEN (3) </b>	-16
1	2023-03-17	12:42:11	13:15:58	13:15:58:014	17	1	TNT_Think_CSm	fixation	0	5	1500	0	0	1	1495	1	+	-16
1	2023-03-17	12:42:11	13:15:59	13:15:59:027	17	2	TNT_Think_CSm	Think	0	5	0	0	0	0	1000	1	THINK	-16
1	2023-03-17	12:42:11	13:16:04	13:16:04:044	17	3	TNT_Think_CSm	TNT_Think_CSm	0	5	0	0	0	0	5000	1	Cue18.jpg	-16
1	2023-03-17	12:42:11	13:16:04	13:16:04:802	17	4	TNT_Think_CSm	Intrusion	0	1000	3000	0	81	1	740	1	How <b>often</b> did you <b>think</b> about the <b>scene</b>?   <center><br><b>NEVER (1)    BRIEFLY (2)   OFTEN (3) </b>	-16
1	2023-03-17	12:42:11	13:16:07	13:16:07:548	18	1	TNT_NoThink_CSp	fixation	0	5	500	0	0	1	495	1	+	-9
1	2023-03-17	12:42:11	13:16:08	13:16:08:561	18	2	TNT_NoThink_CSp	NoThink	0	5	0	0	0	0	1000	1	DON'T THINK	-16
1	2023-03-17	12:42:11	13:16:13	13:16:13:578	18	3	TNT_NoThink_CSp	TNT_NoThink_CSp	0	5	0	0	0	0	5000	3	Cue2.jpg	-16
1	2023-03-17	12:42:11	13:16:14	13:16:14:370	18	4	TNT_NoThink_CSp	Intrusion	0	1000	3000	0	80	1	775	1	How <b>often</b> did you <b>think</b> about the <b>scene</b>?   <center><br><b>NEVER (1)    BRIEFLY (2)   OFTEN (3) </b>	-16
1	2023-03-17	12:42:11	13:16:17	13:16:17:582	19	1	TNT_NoThink_CSp	fixation	0	5	1000	0	0	1	995	1	+	-9
1	2023-03-17	12:42:11	13:16:18	13:16:18:595	19	2	TNT_NoThink_CSp	NoThink	0	5	0	0	0	0	1000	1	DON'T THINK	-16
1	2023-03-17	12:42:11	13:16:23	13:16:23:612	19	3	TNT_NoThink_CSp	TNT_NoThink_CSp	0	5	0	0	0	0	5000	2	Cue35.jpg	-16
1	2023-03-17	12:42:11	13:16:24	13:16:24:162	19	4	TNT_NoThink_CSp	Intrusion	0	1500	3000	0	80	1	534	1	How <b>often</b> did you <b>think</b> about the <b>scene</b>?   <center><br><b>NEVER (1)    BRIEFLY (2)   OFTEN (3) </b>	-16
1	2023-03-17	12:42:11	13:16:28	13:16:28:116	20	1	TNT_Think_CSm	fixation	0	5	1500	0	0	1	1495	1	+	-16
1	2023-03-17	12:42:11	13:16:29	13:16:29:129	20	2	TNT_Think_CSm	Think	0	5	0	0	0	0	1000	1	THINK	-16
1	2023-03-17	12:42:11	13:16:34	13:16:34:146	20	3	TNT_Think_CSm	TNT_Think_CSm	0	5	0	0	0	0	5000	4	Cue23.jpg	-16
1	2023-03-17	12:42:11	13:16:35	13:16:35:250	20	4	TNT_Think_CSm	Intrusion	0	500	3000	0	81	1	1087	1	How <b>often</b> did you <b>think</b> about the <b>scene</b>?   <center><br><b>NEVER (1)    BRIEFLY (2)   OFTEN (3) </b>	-16
1	2023-03-17	12:42:11	13:16:38	13:16:38:150	21	1	TNT_Object_CSp	fixation	0	5	1000	0	0	1	995	1	+	-16
1	2023-03-17	12:42:11	13:16:39	13:16:39:163	21	2	TNT_Object_CSp	Passive	0	5	0	0	0	0	1000	1	VIEW	-16
1	2023-03-17	12:42:11	13:16:44	13:16:44:180	21	3	TNT_Object_CSp	TNT_Object_CSp	0	500	0	0	0	0	5000	1	Object3.jpg	-16
1	2023-03-17	12:42:11	13:16:45	13:16:45:179	22	1	TNT_Object_CSm	fixation	0	5	500	0	0	1	495	1	+	-7
1	2023-03-17	12:42:11	13:16:46	13:16:46:196	22	2	TNT_Object_CSm	Passive	0	5	0	0	0	0	1000	1	VIEW	-16
1	2023-03-17	12:42:11	13:16:51	13:16:51:213	22	3	TNT_Object_CSm	TNT_Object_CSm	0	1000	0	0	0	0	5000	1	Object2.jpg	-16
1	2023-03-17	12:42:11	13:16:52	13:16:52:713	23	1	TNT_NoThink_CSp	fixation	0	5	500	0	0	1	495	1	+	-5
1	2023-03-17	12:42:11	13:16:53	13:16:53:731	23	2	TNT_NoThink_CSp	NoThink	0	5	0	0	0	0	1000	1	DON'T THINK	-16
1	2023-03-17	12:42:11	13:16:58	13:16:58:748	23	3	TNT_NoThink_CSp	TNT_NoThink_CSp	0	5	0	0	0	0	5000	1	Cue11.jpg	-16
1	2023-03-17	12:42:11	13:17:00	13:17:00:874	23	4	TNT_NoThink_CSp	Intrusion	0	1000	3000	0	80	1	1110	1	How <b>often</b> did you <b>think</b> about the <b>scene</b>?   <center><br><b>NEVER (1)    BRIEFLY (2)   OFTEN (3) </b>	-16
1	2023-03-17	12:42:11	13:17:03	13:17:03:251	24	1	TNT_Think_CSp	fixation	0	5	1500	0	0	1	1495	1	+	-8
1	2023-03-17	12:42:11	13:17:04	13:17:04:264	24	2	TNT_Think_CSp	Think	0	5	0	0	0	0	1000	1	THINK	-16
1	2023-03-17	12:42:11	13:17:09	13:17:09:281	24	3	TNT_Think_CSp	TNT_Think_CSp	0	5	0	0	0	0	5000	1	Cue22.jpg	-16
1	2023-03-17	12:42:11	13:17:10	13:17:10:578	24	4	TNT_Think_CSp	Intrusion	0	500	3000	0	81	1	1280	1	How <b>often</b> did you <b>think</b> about the <b>scene</b>?   <center><br><b>NEVER (1)    BRIEFLY (2)   OFTEN (3) </b>	-16
1	2023-03-17	12:42:11	13:17:13	13:17:13:285	25	1	TNT_Think_CSm	fixation	0	5	1000	0	0	1	995	1	+	-8
1	2023-03-17	12:42:11	13:17:14	13:17:14:298	25	2	TNT_Think_CSm	Think	0	5	0	0	0	0	1000	1	THINK	-16
1	2023-03-17	12:42:11	13:17:19	13:17:19:315	25	3	TNT_Think_CSm	TNT_Think_CSm	0	5	0	0	0	0	5000	3	Cue31.jpg	-16
1	2023-03-17	12:42:11	13:17:20	13:17:20:242	25	4	TNT_Think_CSm	Intrusion	0	1500	3000	0	81	1	909	1	How <b>often</b> did you <b>think</b> about the <b>scene</b>?   <center><br><b>NEVER (1)    BRIEFLY (2)   OFTEN (3) </b>	-16
1	2023-03-17	12:42:11	13:17:23	13:17:23:319	26	1	TNT_NoThink_CSm	fixation	0	5	1000	0	0	1	995	1	+	-9
1	2023-03-17	12:42:11	13:17:24	13:17:24:332	26	2	TNT_NoThink_CSm	NoThink	0	5	0	0	0	0	1000	1	DON'T THINK	-16
1	2023-03-17	12:42:11	13:17:29	13:17:29:349	26	3	TNT_NoThink_CSm	TNT_NoThink_CSm	0	5	0	0	0	0	5000	1	Cue33.jpg	-16
1	2023-03-17	12:42:11	13:17:30	13:17:30:050	26	4	TNT_NoThink_CSm	Intrusion	0	500	3000	0	80	1	684	1	How <b>often</b> did you <b>think</b> about the <b>scene</b>?   <center><br><b>NEVER (1)    BRIEFLY (2)   OFTEN (3) </b>	-16
1	2023-03-17	12:42:11	13:17:33	13:17:33:853	27	1	TNT_Think_CSp	fixation	0	5	500	0	0	1	495	1	+	-9
1	2023-03-17	12:42:11	13:17:34	13:17:34:866	27	2	TNT_Think_CSp	Think	0	5	0	0	0	0	1000	1	THINK	-16
1	2023-03-17	12:42:11	13:17:39	13:17:39:883	27	3	TNT_Think_CSp	TNT_Think_CSp	0	5	0	0	0	0	5000	2	Cue19.jpg	-16
1	2023-03-17	12:42:11	13:17:39	13:17:39:666	27	4	TNT_Think_CSp	Intrusion	0	1500	3000	0	81	1	766	1	How <b>often</b> did you <b>think</b> about the <b>scene</b>?   <center><br><b>NEVER (1)    BRIEFLY (2)   OFTEN (3) </b>	-16
1	2023-03-17	12:42:11	13:17:43	13:17:43:387	28	1	TNT_Think_CSp	fixation	0	5	1500	0	0	1	1495	1	+	-9
1	2023-03-17	12:42:11	13:17:44	13:17:44:400	28	2	TNT_Think_CSp	Think	0	5	0	0	0	0	1000	1	THINK	-16
1	2023-03-17	12:42:11	13:17:49	13:17:49:417	28	3	TNT_Think_CSp	TNT_Think_CSp	0	5	0	0	0	0	5000	3	Cue28.jpg	-16
1	2023-03-17	12:42:11	13:17:50	13:17:50:290	28	4	TNT_Think_CSp	Intrusion	0	1000	3000	0	81	1	856	1	How <b>often</b> did you <b>think</b> about the <b>scene</b>?   <center><br><b>NEVER (1)    BRIEFLY (2)   OFTEN (3) </b>	-16
1	2023-03-17	12:42:11	13:17:53	13:17:53:420	29	1	TNT_Think_CSm	fixation	0	5	1000	0	0	1	995	1	+	-8
1	2023-03-17	12:42:11	13:17:54	13:17:54:434	29	2	TNT_Think_CSm	Think	0	5	0	0	0	0	1000	1	THINK	-16
1	2023-03-17	12:42:11	13:17:59	13:17:59:451	29	3	TNT_Think_CSm	TNT_Think_CSm	0	5	0	0	0	0	5000	6	Cue12.jpg	-16
1	2023-03-17	12:42:11	13:18:00	13:18:00:482	29	4	TNT_Think_CSm	Intrusion	0	1000	3000	0	81	1	1014	1	How <b>often</b> did you <b>think</b> about the <b>scene</b>?   <center><br><b>NEVER (1)    BRIEFLY (2)   OFTEN (3) </b>	-16
1	2023-03-17	12:42:11	13:18:03	13:18:03:954	30	1	TNT_NoThink_CSp	fixation	0	5	500	0	0	1	495	1	+	-9
1	2023-03-17	12:42:11	13:18:04	13:18:04:968	30	2	TNT_NoThink_CSp	NoThink	0	5	0	0	0	0	1000	1	DON'T THINK	-16
1	2023-03-17	12:42:11	13:18:09	13:18:09:985	30	3	TNT_NoThink_CSp	TNT_NoThink_CSp	0	5	0	0	0	0	5000	4	Cue21.jpg	-16
1	2023-03-17	12:42:11	13:18:09	13:18:09:394	30	4	TNT_NoThink_CSp	Intrusion	0	1500	3000	0	80	1	392	1	How <b>often</b> did you <b>think</b> about the <b>scene</b>?   <center><br><b>NEVER (1)    BRIEFLY (2)   OFTEN (3) </b>	-16
1	2023-03-17	12:42:11	13:18:13	13:18:13:489	31	1	TNT_Object_CSp	fixation	0	5	1500	0	0	1	1495	1	+	-8
1	2023-03-17	12:42:11	13:18:14	13:18:14:502	31	2	TNT_Object_CSp	Passive	0	5	0	0	0	0	1000	1	VIEW	-16
1	2023-03-17	12:42:11	13:18:19	13:18:19:519	31	3	TNT_Object_CSp	TNT_Object_CSp	0	1500	0	0	0	0	5000	3	Object8.jpg	-16
1	2023-03-17	12:42:11	13:18:22	13:18:22:518	32	1	TNT_NoThink_CSm	fixation	0	5	1500	0	0	1	1495	1	+	-8
1	2023-03-17	12:42:11	13:18:23	13:18:23:536	32	2	TNT_NoThink_CSm	NoThink	0	5	0	0	0	0	1000	1	DON'T THINK	-16
1	2023-03-17	12:42:11	13:18:28	13:18:28:553	32	3	TNT_NoThink_CSm	TNT_NoThink_CSm	0	5	0	0	0	0	5000	4	Cue29.jpg	-16
1	2023-03-17	12:42:11	13:18:29	13:18:29:458	32	4	TNT_NoThink_CSm	Intrusion	0	500	3000	0	80	1	889	1	How <b>often</b> did you <b>think</b> about the <b>scene</b>?   <center><br><b>NEVER (1)    BRIEFLY (2)   OFTEN (3) </b>	-16
1	2023-03-17	12:42:11	13:18:32	13:18:32:057	33	1	TNT_Object_CSp	fixation	0	5	500	0	0	1	495	1	+	-16
1	2023-03-17	12:42:11	13:18:33	13:18:33:070	33	2	TNT_Object_CSp	Passive	0	5	0	0	0	0	1000	1	VIEW	-16
1	2023-03-17	12:42:11	13:18:38	13:18:38:087	33	3	TNT_Object_CSp	TNT_Object_CSp	0	1500	0	0	0	0	5000	2	Object1.jpg	-16
1	2023-03-17	12:42:11	13:18:40	13:18:40:586	34	1	TNT_Think_CSp	fixation	0	5	1000	0	0	1	995	1	+	-9
1	2023-03-17	12:42:11	13:18:41	13:18:41:604	34	2	TNT_Think_CSp	Think	0	5	0	0	0	0	1000	1	THINK	-16
1	2023-03-17	12:42:11	13:18:46	13:18:46:620	34	3	TNT_Think_CSp	TNT_Think_CSp	0	5	0	0	0	0	5000	2	Cue19.jpg	-16
1	2023-03-17	12:42:11	13:18:47	13:18:47:218	34	4	TNT_Think_CSp	Intrusion	0	500	3000	0	81	1	581	1	How <b>often</b> did you <b>think</b> about the <b>scene</b>?   <center><br><b>NEVER (1)    BRIEFLY (2)   OFTEN (3) </b>	-16
1	2023-03-17	12:42:11	13:18:50	13:18:50:625	35	1	TNT_NoThink_CSm	fixation	0	5	1000	0	0	1	995	1	+	-16
1	2023-03-17	12:42:11	13:18:51	13:18:51:638	35	2	TNT_NoThink_CSm	NoThink	0	5	0	0	0	0	1000	1	DON'T THINK	-16
1	2023-03-17	12:42:11	13:18:56	13:18:56:655	35	3	TNT_NoThink_CSm	TNT_NoThink_CSm	0	5	0	0	0	0	5000	6	Cue7.jpg	-16
1	2023-03-17	12:42:11	13:18:57	13:18:57:538	35	4	TNT_NoThink_CSm	Intrusion	0	1500	3000	0	80	1	867	1	How <b>often</b> did you <b>think</b> about the <b>scene</b>?   <center><br><b>NEVER (1)    BRIEFLY (2)   OFTEN (3) </b>	-16
1	2023-03-17	12:42:11	13:19:01	13:19:01:159	36	1	TNT_NoThink_CSm	fixation	0	5	1500	0	0	1	1495	1	+	-8
1	2023-03-17	12:42:11	13:19:02	13:19:02:172	36	2	TNT_NoThink_CSm	NoThink	0	5	0	0	0	0	1000	1	DON'T THINK	-16
1	2023-03-17	12:42:11	13:19:07	13:19:07:189	36	3	TNT_NoThink_CSm	TNT_NoThink_CSm	0	5	0	0	0	0	5000	1	Cue33.jpg	-16
1	2023-03-17	12:42:11	13:19:07	13:19:07:778	36	4	TNT_NoThink_CSm	Intrusion	0	1000	3000	0	80	1	573	1	How <b>often</b> did you <b>think</b> about the <b>scene</b>?   <center><br><b>NEVER (1)    BRIEFLY (2)   OFTEN (3) </b>	-16
1	2023-03-17	12:42:11	13:19:10	13:19:10:693	37	1	TNT_Object_CSp	fixation	0	5	500	0	0	1	495	1	+	-16
1	2023-03-17	12:42:11	13:19:11	13:19:11:705	37	2	TNT_Object_CSp	Passive	0	5	0	0	0	0	1000	1	VIEW	-16
1	2023-03-17	12:42:11	13:19:16	13:19:16:722	37	3	TNT_Object_CSp	TNT_Object_CSp	0	500	0	0	0	0	5000	4	Object4.jpg	-16
1	2023-03-17	12:42:11	13:19:18	13:19:18:721	38	1	TNT_NoThink_CSm	fixation	0	5	1500	0	0	1	1495	1	+	-9
1	2023-03-17	12:42:11	13:19:19	13:19:19:740	38	2	TNT_NoThink_CSm	NoThink	0	5	0	0	0	0	1000	1	DON'T THINK	-16
1	2023-03-17	12:42:11	13:19:24	13:19:24:756	38	3	TNT_NoThink_CSm	TNT_NoThink_CSm	0	5	0	0	0	0	5000	3	Cue10.jpg	-16
1	2023-03-17	12:42:11	13:19:25	13:19:25:442	38	4	TNT_NoThink_CSm	Intrusion	0	500	3000	0	80	1	669	1	How <b>often</b> did you <b>think</b> about the <b>scene</b>?   <center><br><b>NEVER (1)    BRIEFLY (2)   OFTEN (3) </b>	-16
1	2023-03-17	12:42:11	13:19:28	13:19:28:760	39	1	TNT_Think_CSp	fixation	0	5	1000	0	0	1	995	1	+	-9
1	2023-03-17	12:42:11	13:19:29	13:19:29:773	39	2	TNT_Think_CSp	Think	0	5	0	0	0	0	1000	1	THINK	-16
1	2023-03-17	12:42:11	13:19:34	13:19:34:790	39	3	TNT_Think_CSp	TNT_Think_CSp	0	5	0	0	0	0	5000	3	Cue28.jpg	-16
1	2023-03-17	12:42:11	13:19:35	13:19:35:714	39	4	TNT_Think_CSp	Intrusion	0	1000	3000	0	81	1	907	1	How <b>often</b> did you <b>think</b> about the <b>scene</b>?   <center><br><b>NEVER (1)    BRIEFLY (2)   OFTEN (3) </b>	-16
1	2023-03-17	12:42:11	13:19:38	13:19:38:294	40	1	TNT_Think_CSm	fixation	0	5	500	0	0	1	495	1	+	-8
1	2023-03-17	12:42:11	13:19:39	13:19:39:307	40	2	TNT_Think_CSm	Think	0	5	0	0	0	0	1000	1	THINK	-16
1	2023-03-17	12:42:11	13:19:44	13:19:44:324	40	3	TNT_Think_CSm	TNT_Think_CSm	0	5	0	0	0	0	5000	5	Cue9.jpg	-16
1	2023-03-17	12:42:11	13:19:46	13:19:46:831	40	4	TNT_Think_CSm	Intrusion	0	1500	3000	0	0	0	1500	1	How <b>often</b> did you <b>think</b> about the <b>scene</b>?   <center><br><b>NEVER (1)    BRIEFLY (2)   OFTEN (3) </b>	-16
1	2023-03-17	12:42:11	13:19:48	13:19:48:828	41	1	TNT_NoThink_CSp	fixation	0	5	500	0	0	1	495	1	+	-9
1	2023-03-17	12:42:11	13:19:49	13:19:49:841	41	2	TNT_NoThink_CSp	NoThink	0	5	0	0	0	0	1000	1	DON'T THINK	-16
1	2023-03-17	12:42:11	13:19:54	13:19:54:858	41	3	TNT_NoThink_CSp	TNT_NoThink_CSp	0	5	0	0	0	0	5000	3	Cue2.jpg	-16
1	2023-03-17	12:42:11	13:19:55	13:19:55:442	41	4	TNT_NoThink_CSp	Intrusion	0	500	3000	0	80	1	1567	1	How <b>often</b> did you <b>think</b> about the <b>scene</b>?   <center><br><b>NEVER (1)    BRIEFLY (2)   OFTEN (3) </b>	-16
1	2023-03-17	12:42:11	13:19:58	13:19:58:862	42	1	TNT_Think_CSp	fixation	0	5	1000	0	0	1	995	1	+	-8
1	2023-03-17	12:42:11	13:19:59	13:19:59:875	42	2	TNT_Think_CSp	Think	0	5	0	0	0	0	1000	1	THINK	-16
1	2023-03-17	12:42:11	13:20:04	13:20:04:892	42	3	TNT_Think_CSp	TNT_Think_CSp	0	5	0	0	0	0	5000	1	Cue22.jpg	-16
1	2023-03-17	12:42:11	13:20:05	13:20:05:010	42	4	TNT_Think_CSp	Intrusion	0	1500	3000	0	81	1	1101	1	How <b>often</b> did you <b>think</b> about the <b>scene</b>?   <center><br><b>NEVER (1)    BRIEFLY (2)   OFTEN (3) </b>	-16
1	2023-03-17	12:42:11	13:20:08	13:20:08:396	43	1	TNT_NoThink_CSm	fixation	0	5	1500	0	0	1	1495	1	+	-9
1	2023-03-17	12:42:11	13:20:09	13:20:09:409	43	2	TNT_NoThink_CSm	NoThink	0	5	0	0	0	0	1000	1	DON'T THINK	-16
1	2023-03-17	12:42:11	13:20:14	13:20:14:426	43	3	TNT_NoThink_CSm	TNT_NoThink_CSm	0	5	0	0	0	0	5000	4	Cue29.jpg	-16
1	2023-03-17	12:42:11	13:20:15	13:20:15:394	43	4	TNT_NoThink_CSm	Intrusion	0	1000	3000	0	80	1	951	1	How <b>often</b> did you <b>think</b> about the <b>scene</b>?   <center><br><b>NEVER (1)    BRIEFLY (2)   OFTEN (3) </b>	-16
1	2023-03-17	12:42:11	13:20:18	13:20:18:430	44	1	TNT_Object_CSp	fixation	0	5	1000	0	0	1	995	1	+	-9
1	2023-03-17	12:42:11	13:20:19	13:20:19:443	44	2	TNT_Object_CSp	Passive	0	5	0	0	0	0	1000	1	VIEW	-16
1	2023-03-17	12:42:11	13:20:24	13:20:24:460	44	3	TNT_Object_CSp	TNT_Object_CSp	0	1000	0	0	0	0	5000	2	Object1.jpg	-16
1	2023-03-17	12:42:11	13:20:26	13:20:26:959	45	1	TNT_NoThink_CSp	fixation	0	5	500	0	0	1	495	1	+	-9
1	2023-03-17	12:42:11	13:20:27	13:20:27:977	45	2	TNT_NoThink_CSp	NoThink	0	5	0	0	0	0	1000	1	DON'T THINK	-16
1	2023-03-17	12:42:11	13:20:32	13:20:32:994	45	3	TNT_NoThink_CSp	TNT_NoThink_CSp	0	5	0	0	0	0	5000	2	Cue35.jpg	-16
1	2023-03-17	12:42:11	13:20:33	13:20:33:090	45	4	TNT_NoThink_CSp	Intrusion	0	1000	3000	0	79	1	1080	1	How <b>often</b> did you <b>think</b> about the <b>scene</b>?   <center><br><b>NEVER (1)    BRIEFLY (2)   OFTEN (3) </b>	-16
1	2023-03-17	12:42:11	13:20:36	13:20:36:498	46	1	TNT_Think_CSp	fixation	0	5	1500	0	0	1	1495	1	+	-16
1	2023-03-17	12:42:11	13:20:37	13:20:37:511	46	2	TNT_Think_CSp	Think	0	5	0	0	0	0	1000	1	THINK	-16
1	2023-03-17	12:42:11	13:20:42	13:20:42:528	46	3	TNT_Think_CSp	TNT_Think_CSp	0	5	0	0	0	0	5000	5	Cue20.jpg	-16
1	2023-03-17	12:42:11	13:20:44	13:20:44:786	46	4	TNT_Think_CSp	Intrusion	0	500	3000	0	81	1	2242	1	How <b>often</b> did you <b>think</b> about the <b>scene</b>?   <center><br><b>NEVER (1)    BRIEFLY (2)   OFTEN (3) </b>	-16
1	2023-03-17	12:42:11	13:20:46	13:20:46:532	47	1	TNT_Think_CSm	fixation	0	5	1000	0	0	1	995	1	+	-16
1	2023-03-17	12:42:11	13:20:47	13:20:47:545	47	2	TNT_Think_CSm	Think	0	5	0	0	0	0	1000	1	THINK	-16
1	2023-03-17	12:42:11	13:20:52	13:20:52:562	47	3	TNT_Think_CSm	TNT_Think_CSm	0	5	0	0	0	0	5000	1	Cue18.jpg	-16
1	2023-03-17	12:42:11	13:20:53	13:20:53:186	47	4	TNT_Think_CSm	Intrusion	0	1500	3000	0	81	1	608	1	How <b>often</b> did you <b>think</b> about the <b>scene</b>?   <center><br><b>NEVER (1)    BRIEFLY (2)   OFTEN (3) </b>	-16
1	2023-03-17	12:42:11	13:20:56	13:20:56:066	48	1	TNT_NoThink_CSm	fixation	0	5	500	0	0	1	495	1	+	-16
1	2023-03-17	12:42:11	13:20:57	13:20:57:079	48	2	TNT_NoThink_CSm	NoThink	0	5	0	0	0	0	1000	1	DON'T THINK	-16
1	2023-03-17	12:42:11	13:21:02	13:21:02:096	48	3	TNT_NoThink_CSm	TNT_NoThink_CSm	0	5	0	0	0	0	5000	2	Cue8.jpg	-16
1	2023-03-17	12:42:11	13:21:03	13:21:03:154	48	4	TNT_NoThink_CSm	Intrusion	0	1000	3000	0	79	1	1042	1	How <b>often</b> did you <b>think</b> about the <b>scene</b>?   <center><br><b>NEVER (1)    BRIEFLY (2)   OFTEN (3) </b>	-16
1	2023-03-17	12:42:11	13:21:06	13:21:06:600	49	1	TNT_Object_CSp	fixation	0	5	1500	0	0	1	1495	1	+	-16
1	2023-03-17	12:42:11	13:21:07	13:21:07:613	49	2	TNT_Object_CSp	Passive	0	5	0	0	0	0	1000	1	VIEW	-16
1	2023-03-17	12:42:11	13:21:12	13:21:12:629	49	3	TNT_Object_CSp	TNT_Object_CSp	0	1000	0	0	0	0	5000	1	Object3.jpg	-16
1	2023-03-17	12:42:11	13:21:15	13:21:15:129	50	1	TNT_Think_CSp	fixation	0	5	1500	0	0	1	1495	1	+	-8
1	2023-03-17	12:42:11	13:21:16	13:21:16:146	50	2	TNT_Think_CSp	Think	0	5	0	0	0	0	1000	1	THINK	-16
1	2023-03-17	12:42:11	13:21:21	13:21:21:163	50	3	TNT_Think_CSp	TNT_Think_CSp	0	5	0	0	0	0	5000	4	Cue17.jpg	-16
1	2023-03-17	12:42:11	13:21:22	13:21:22:130	50	4	TNT_Think_CSp	Intrusion	0	500	3000	0	81	1	950	1	How <b>often</b> did you <b>think</b> about the <b>scene</b>?   <center><br><b>NEVER (1)    BRIEFLY (2)   OFTEN (3) </b>	-16
1	2023-03-17	12:42:11	13:21:25	13:21:25:167	51	1	TNT_Think_CSp	fixation	0	5	1000	0	0	1	995	1	+	-9
1	2023-03-17	12:42:11	13:21:26	13:21:26:180	51	2	TNT_Think_CSp	Think	0	5	0	0	0	0	1000	1	THINK	-16
1	2023-03-17	12:42:11	13:21:31	13:21:31:197	51	3	TNT_Think_CSp	TNT_Think_CSp	0	5	0	0	0	0	5000	6	Cue34.jpg	-16
1	2023-03-17	12:42:11	13:21:32	13:21:32:986	51	4	TNT_Think_CSp	Intrusion	0	1500	3000	0	81	1	772	1	How <b>often</b> did you <b>think</b> about the <b>scene</b>?   <center><br><b>NEVER (1)    BRIEFLY (2)   OFTEN (3) </b>	-16
1	2023-03-17	12:42:11	13:21:34	13:21:34:701	52	1	TNT_Think_CSm	fixation	0	5	500	0	0	1	495	1	+	-9
1	2023-03-17	12:42:11	13:21:35	13:21:35:714	52	2	TNT_Think_CSm	Think	0	5	0	0	0	0	1000	1	THINK	-16
1	2023-03-17	12:42:11	13:21:40	13:21:40:731	52	3	TNT_Think_CSm	TNT_Think_CSm	0	5	0	0	0	0	5000	4	Cue23.jpg	-16
1	2023-03-17	12:42:11	13:21:42	13:21:42:938	52	4	TNT_Think_CSm	Intrusion	0	500	3000	0	81	1	1190	1	How <b>often</b> did you <b>think</b> about the <b>scene</b>?   <center><br><b>NEVER (1)    BRIEFLY (2)   OFTEN (3) </b>	-16
1	2023-03-17	12:42:11	13:21:45	13:21:45:235	53	1	TNT_Object_CSm	fixation	0	5	1500	0	0	1	1495	1	+	-8
1	2023-03-17	12:42:11	13:21:46	13:21:46:248	53	2	TNT_Object_CSm	Passive	0	5	0	0	0	0	1000	1	VIEW	-16
1	2023-03-17	12:42:11	13:21:51	13:21:51:265	53	3	TNT_Object_CSm	TNT_Object_CSm	0	1500	0	0	0	0	5000	3	Object7.jpg	-16
1	2023-03-17	12:42:11	13:21:53	13:21:53:264	54	1	TNT_Think_CSm	fixation	0	5	500	0	0	1	495	1	+	-8
1	2023-03-17	12:42:11	13:21:54	13:21:54:282	54	2	TNT_Think_CSm	Think	0	5	0	0	0	0	1000	1	THINK	-16
1	2023-03-17	12:42:11	13:21:59	13:21:59:299	54	3	TNT_Think_CSm	TNT_Think_CSm	0	5	0	0	0	0	5000	3	Cue31.jpg	-16
1	2023-03-17	12:42:11	13:22:00	13:22:00:179	54	4	TNT_Think_CSm	Intrusion	0	1500	3000	0	81	1	862	1	How <b>often</b> did you <b>think</b> about the <b>scene</b>?   <center><br><b>NEVER (1)    BRIEFLY (2)   OFTEN (3) </b>	-16
1	2023-03-17	12:42:11	13:22:03	13:22:03:303	55	1	TNT_NoThink_CSm	fixation	0	5	1000	0	0	1	995	1	+	-5
1	2023-03-17	12:42:11	13:22:04	13:22:04:316	55	2	TNT_NoThink_CSm	NoThink	0	5	0	0	0	0	1000	1	DON'T THINK	-16
1	2023-03-17	12:42:11	13:22:09	13:22:09:333	55	3	TNT_NoThink_CSm	TNT_NoThink_CSm	0	5	0	0	0	0	5000	5	Cue25.jpg	-16
1	2023-03-17	12:42:11	13:22:10	13:22:10:162	55	4	TNT_NoThink_CSm	Intrusion	0	1000	3000	0	80	1	812	1	How <b>often</b> did you <b>think</b> about the <b>scene</b>?   <center><br><b>NEVER (1)    BRIEFLY (2)   OFTEN (3) </b>	-16
1	2023-03-17	12:42:11	13:22:13	13:22:13:337	56	1	TNT_Think_CSm	fixation	0	5	1000	0	0	1	995	1	+	-8
1	2023-03-17	12:42:11	13:22:14	13:22:14:350	56	2	TNT_Think_CSm	Think	0	5	0	0	0	0	1000	1	THINK	-16
1	2023-03-17	12:42:11	13:22:19	13:22:19:367	56	3	TNT_Think_CSm	TNT_Think_CSm	0	5	0	0	0	0	5000	2	Cue6.jpg	-16
1	2023-03-17	12:42:11	13:22:20	13:22:20:034	56	4	TNT_Think_CSm	Intrusion	0	1500	3000	0	81	1	650	1	How <b>often</b> did you <b>think</b> about the <b>scene</b>?   <center><br><b>NEVER (1)    BRIEFLY (2)   OFTEN (3) </b>	-16
1	2023-03-17	12:42:11	13:22:24	13:22:24:870	57	1	TNT_Object_CSm	fixation	0	5	1500	0	0	1	1495	1	+	-9
1	2023-03-17	12:42:11	13:22:25	13:22:25:884	57	2	TNT_Object_CSm	Passive	0	5	0	0	0	0	1000	1	VIEW	-16
1	2023-03-17	12:42:11	13:22:30	13:22:30:901	57	3	TNT_Object_CSm	TNT_Object_CSm	0	500	0	0	0	0	5000	2	Object5.jpg	-16
1	2023-03-17	12:42:11	13:22:31	13:22:31:901	58	1	TNT_NoThink_CSp	fixation	0	5	500	0	0	1	495	1	+	-9
1	2023-03-17	12:42:11	13:22:32	13:22:32:918	58	2	TNT_NoThink_CSp	NoThink	0	5	0	0	0	0	1000	1	DON'T THINK	-16
1	2023-03-17	12:42:11	13:22:37	13:22:37:934	58	3	TNT_NoThink_CSp	TNT_NoThink_CSp	0	5	0	0	0	0	5000	1	Cue11.jpg	-16
1	2023-03-17	12:42:11	13:22:37	13:22:37:795	58	4	TNT_NoThink_CSp	Intrusion	0	500	3000	0	80	1	843	1	How <b>often</b> did you <b>think</b> about the <b>scene</b>?   <center><br><b>NEVER (1)    BRIEFLY (2)   OFTEN (3) </b>	-16
1	2023-03-17	12:42:11	13:22:41	13:22:41:938	59	1	TNT_Think_CSm	fixation	0	5	1000	0	0	1	995	1	+	-5
1	2023-03-17	12:42:11	13:22:42	13:22:42:952	59	2	TNT_Think_CSm	Think	0	5	0	0	0	0	1000	1	THINK	-16
1	2023-03-17	12:42:11	13:22:47	13:22:47:968	59	3	TNT_Think_CSm	TNT_Think_CSm	0	5	0	0	0	0	5000	6	Cue12.jpg	-16
1	2023-03-17	12:42:11	13:22:47	13:22:47:651	59	4	TNT_Think_CSm	Intrusion	0	1000	3000	0	81	1	665	1	How <b>often</b> did you <b>think</b> about the <b>scene</b>?   <center><br><b>NEVER (1)    BRIEFLY (2)   OFTEN (3) </b>	-16
1	2023-03-17	12:42:11	13:22:50	13:22:50:472	60	1	TNT_NoThink_CSp	fixation	0	5	500	0	0	1	495	1	+	-16
1	2023-03-17	12:42:11	13:22:51	13:22:51:486	60	2	TNT_NoThink_CSp	NoThink	0	5	0	0	0	0	1000	1	DON'T THINK	-16
1	2023-03-17	12:42:11	13:22:56	13:22:56:503	60	3	TNT_NoThink_CSp	TNT_NoThink_CSp	0	5	0	0	0	0	5000	6	Cue14.jpg	-16
1	2023-03-17	12:42:11	13:22:57	13:22:57:963	60	4	TNT_NoThink_CSp	Intrusion	0	500	3000	0	80	1	443	1	How <b>often</b> did you <b>think</b> about the <b>scene</b>?   <center><br><b>NEVER (1)    BRIEFLY (2)   OFTEN (3) </b>	-16
1	2023-03-17	12:42:11	13:23:01	13:23:01:07	61	1	TNT_NoThink_CSp	fixation	0	5	1500	0	0	1	1495	1	+	-16
1	2023-03-17	12:42:11	13:23:02	13:23:02:020	61	2	TNT_NoThink_CSp	NoThink	0	5	0	0	0	0	1000	1	DON'T THINK	-16
1	2023-03-17	12:42:11	13:23:07	13:23:07:037	61	3	TNT_NoThink_CSp	TNT_NoThink_CSp	0	5	0	0	0	0	5000	5	Cue15.jpg	-16
1	2023-03-17	12:42:11	13:23:07	13:23:07:714	61	4	TNT_NoThink_CSp	Intrusion	0	1500	3000	0	80	1	661	1	How <b>often</b> did you <b>think</b> about the <b>scene</b>?   <center><br><b>NEVER (1)    BRIEFLY (2)   OFTEN (3) </b>	-16
1	2023-03-17	12:42:11	13:23:11	13:23:11:041	62	1	TNT_Object_CSm	fixation	0	5	1000	0	0	1	995	1	+	-16
1	2023-03-17	12:42:11	13:23:12	13:23:12:054	62	2	TNT_Object_CSm	Passive	0	5	0	0	0	0	1000	1	VIEW	-16
1	2023-03-17	12:42:11	13:23:17	13:23:17:070	62	3	TNT_Object_CSm	TNT_Object_CSm	0	1000	0	0	0	0	5000	4	Object6.jpg	-16
1	2023-03-17	12:42:11	13:23:19	13:23:19:570	63	1	TNT_Object_CSm	fixation	0	5	1500	0	0	1	1495	1	+	-8
1	2023-03-17	12:42:11	13:23:20	13:23:20:587	63	2	TNT_Object_CSm	Passive	0	5	0	0	0	0	1000	1	VIEW	-16
1	2023-03-17	12:42:11	13:23:25	13:23:25:604	63	3	TNT_Object_CSm	TNT_Object_CSm	0	1500	0	0	0	0	5000	1	Object2.jpg	-16
1	2023-03-17	12:42:11	13:23:27	13:23:27:603	64	1	TNT_NoThink_CSp	fixation	0	5	500	0	0	1	495	1	+	-8
1	2023-03-17	12:42:11	13:23:28	13:23:28:622	64	2	TNT_NoThink_CSp	NoThink	0	5	0	0	0	0	1000	1	DON'T THINK	-16
1	2023-03-17	12:42:11	13:23:33	13:23:33:638	64	3	TNT_NoThink_CSp	TNT_NoThink_CSp	0	5	0	0	0	0	5000	4	Cue21.jpg	-16
1	2023-03-17	12:42:11	13:23:34	13:23:34:419	64	4	TNT_NoThink_CSp	Intrusion	0	1000	3000	0	80	1	763	1	How <b>often</b> did you <b>think</b> about the <b>scene</b>?   <center><br><b>NEVER (1)    BRIEFLY (2)   OFTEN (3) </b>	-16
1	2023-03-17	12:42:11	13:23:37	13:23:37:142	65	1	TNT_Object_CSp	fixation	0	5	500	0	0	1	495	1	+	-9
1	2023-03-17	12:42:11	13:23:38	13:23:38:155	65	2	TNT_Object_CSp	Passive	0	5	0	0	0	0	1000	1	VIEW	-16
1	2023-03-17	12:42:11	13:23:43	13:23:43:172	65	3	TNT_Object_CSp	TNT_Object_CSp	0	1500	0	0	0	0	5000	3	Object8.jpg	-16
1	2023-03-17	12:42:11	13:24:04	13:24:04:500	2	1	Expectancy_rating	fixation	0	5	1500	0	0	1	1495	1	+	-9
1	2023-03-17	12:42:11	13:24:09	13:24:09:184	2	2	Expectancy_rating	expectancy_rating	0	1500	0	0	0	0	4625	1	When you saw the <b>object</b>,   to what <b>degree (0-100%)</b> did you expect the <b>unpleasant sound to occur</b>?	-16
1	2023-03-17	12:42:11	13:24:11	13:24:11:670	3	1	Expectancy_rating	fixation	0	5	1000	0	0	1	995	1	+	-8
1	2023-03-17	12:42:11	13:24:16	13:24:16:712	3	2	Expectancy_rating	expectancy_rating	0	500	0	0	70	0	3994	1	When you saw the <b>object</b>,   to what <b>degree (0-100%)</b> did you expect the <b>unpleasant sound to occur</b>?	-16
1	2023-03-17	12:42:11	13:24:17	13:24:17:701	4	1	Expectancy_rating	fixation	0	5	500	0	0	1	495	1	+	-9
1	2023-03-17	12:42:11	13:24:22	13:24:22:634	4	2	Expectancy_rating	expectancy_rating	0	1000	0	0	10	0	5880	1	When you saw the <b>object</b>,   to what <b>degree (0-100%)</b> did you expect the <b>unpleasant sound to occur</b>?	-16
1	2023-03-17	12:42:11	13:24:24	13:24:24:620	5	1	Expectancy_rating	fixation	0	5	1000	0	0	1	995	1	+	-9
1	2023-03-17	12:42:11	13:24:30	13:24:30:635	5	2	Expectancy_rating	expectancy_rating	0	1000	0	0	40	0	5987	1	When you saw the <b>object</b>,   to what <b>degree (0-100%)</b> did you expect the <b>unpleasant sound to occur</b>?	-16
1	2023-03-17	12:42:11	13:24:33	13:24:33:138	6	1	Expectancy_rating	fixation	0	5	1500	0	0	1	1495	1	+	-9
1	2023-03-17	12:42:11	13:24:38	13:24:38:119	6	2	Expectancy_rating	expectancy_rating	0	1500	0	0	50	0	4934	1	When you saw the <b>object</b>,   to what <b>degree (0-100%)</b> did you expect the <b>unpleasant sound to occur</b>?	-16
1	2023-03-17	12:42:11	13:24:40	13:24:40:105	7	1	Expectancy_rating	fixation	0	5	500	0	0	1	495	1	+	-8
1	2023-03-17	12:42:11	13:24:43	13:24:43:552	7	2	Expectancy_rating	expectancy_rating	0	500	0	0	10	0	3399	1	When you saw the <b>object</b>,   to what <b>degree (0-100%)</b> did you expect the <b>unpleasant sound to occur</b>?	-16
1	2023-03-17	12:42:11	13:24:45	13:24:45:039	8	1	Expectancy_rating	fixation	0	5	1000	0	0	1	995	1	+	-9
1	2023-03-17	12:42:11	13:24:49	13:24:49:036	8	2	Expectancy_rating	expectancy_rating	0	1500	0	0	90	0	3945	1	When you saw the <b>object</b>,   to what <b>degree (0-100%)</b> did you expect the <b>unpleasant sound to occur</b>?	-16
1	2023-03-17	12:42:11	13:24:52	13:24:52:022	9	1	Expectancy_rating	fixation	0	5	1500	0	0	1	1495	1	+	-8
1	2023-03-17	12:42:11	13:25:00	13:25:00:920	9	2	Expectancy_rating	expectancy_rating	0	1000	0	0	70	0	7849	1	When you saw the <b>object</b>,   to what <b>degree (0-100%)</b> did you expect the <b>unpleasant sound to occur</b>?	-16
1	2023-03-17	12:42:11	13:25:02	13:25:02:406	10	1	Expectancy_rating	fixation	0	5	1500	0	0	1	1495	1	+	-8
1	2023-03-17	12:42:11	13:25:06	13:25:06:504	10	2	Expectancy_rating	expectancy_rating	0	500	0	0	1	0	4073	1	When you saw the <b>object</b>,   to what <b>degree (0-100%)</b> did you expect the <b>unpleasant sound to occur</b>?	-16
1	2023-03-17	12:42:11	13:25:07	13:25:07:507	11	1	Expectancy_rating	fixation	0	5	500	0	0	1	495	1	+	-9
1	2023-03-17	12:42:11	13:25:12	13:25:12:754	11	2	Expectancy_rating	expectancy_rating	0	500	0	0	90	0	4197	1	When you saw the <b>object</b>,   to what <b>degree (0-100%)</b> did you expect the <b>unpleasant sound to occur</b>?	-16
1	2023-03-17	12:42:11	13:25:13	13:25:13:240	12	1	Expectancy_rating	fixation	0	5	1000	0	0	1	995	1	+	-9
1	2023-03-17	12:42:11	13:25:16	13:25:16:521	12	2	Expectancy_rating	expectancy_rating	0	1000	0	0	20	0	3232	1	When you saw the <b>object</b>,   to what <b>degree (0-100%)</b> did you expect the <b>unpleasant sound to occur</b>?	-16
1	2023-03-17	12:42:11	13:25:18	13:25:18:07	13	1	Expectancy_rating	fixation	0	5	500	0	0	1	495	1	+	-8
1	2023-03-17	12:42:11	13:25:21	13:25:21:071	13	2	Expectancy_rating	expectancy_rating	0	1500	0	0	80	0	3017	1	When you saw the <b>object</b>,   to what <b>degree (0-100%)</b> did you expect the <b>unpleasant sound to occur</b>?	-16
1	2023-03-17	12:42:11	13:25:24	13:25:24:058	14	1	Expectancy_rating	fixation	0	5	1500	0	0	1	1495	1	+	-9
1	2023-03-17	12:42:11	13:25:28	13:25:28:773	14	2	Expectancy_rating	expectancy_rating	0	500	0	0	50	0	3686	1	When you saw the <b>object</b>,   to what <b>degree (0-100%)</b> did you expect the <b>unpleasant sound to occur</b>?	-16
1	2023-03-17	12:42:11	13:25:29	13:25:29:275	15	1	Expectancy_rating	fixation	0	5	1000	0	0	1	995	1	+	-7
1	2023-03-17	12:42:11	13:25:35	13:25:35:439	15	2	Expectancy_rating	expectancy_rating	0	1500	0	0	70	0	6117	1	When you saw the <b>object</b>,   to what <b>degree (0-100%)</b> did you expect the <b>unpleasant sound to occur</b>?	-16
1	2023-03-17	12:42:11	13:25:38	13:25:38:925	16	1	Expectancy_rating	fixation	0	5	1000	0	0	1	995	1	+	-8
1	2023-03-17	12:42:11	13:25:42	13:25:42:089	16	2	Expectancy_rating	expectancy_rating	0	1000	0	0	40	0	4139	1	When you saw the <b>object</b>,   to what <b>degree (0-100%)</b> did you expect the <b>unpleasant sound to occur</b>?	-16
1	2023-03-17	12:42:11	13:25:44	13:25:44:592	17	1	Expectancy_rating	fixation	0	5	1500	0	0	1	1495	1	+	-9
1	2023-03-17	12:42:11	13:25:49	13:25:49:906	17	2	Expectancy_rating	expectancy_rating	0	500	0	0	30	0	4264	1	When you saw the <b>object</b>,   to what <b>degree (0-100%)</b> did you expect the <b>unpleasant sound to occur</b>?	-16
1	2023-03-17	12:42:11	13:25:50	13:25:50:893	18	1	Expectancy_rating	fixation	0	5	500	0	0	1	495	1	+	-4
1	2023-03-17	12:42:11	13:25:53	13:25:53:607	18	2	Expectancy_rating	expectancy_rating	0	1500	0	0	50	0	3691	1	When you saw the <b>object</b>,   to what <b>degree (0-100%)</b> did you expect the <b>unpleasant sound to occur</b>?	-16
1	2023-03-17	12:42:11	13:25:55	13:25:55:609	19	1	Expectancy_rating	fixation	0	5	500	0	0	1	495	1	+	-8
1	2023-03-17	12:42:11	13:25:58	13:25:58:458	19	2	Expectancy_rating	expectancy_rating	0	1000	0	0	20	0	2823	1	When you saw the <b>object</b>,   to what <b>degree (0-100%)</b> did you expect the <b>unpleasant sound to occur</b>?	-16
1	2023-03-17	12:42:11	13:26:01	13:26:01:960	20	1	Expectancy_rating	fixation	0	5	1500	0	0	1	1495	1	+	-8
1	2023-03-17	12:42:11	13:26:04	13:26:04:607	20	2	Expectancy_rating	expectancy_rating	0	1000	0	0	100	0	3601	1	When you saw the <b>object</b>,   to what <b>degree (0-100%)</b> did you expect the <b>unpleasant sound to occur</b>?	-16
1	2023-03-17	12:42:11	13:26:06	13:26:06:594	21	1	Expectancy_rating	fixation	0	5	1000	0	0	1	995	1	+	-8
1	2023-03-17	12:42:11	13:26:11	13:26:11:558	21	2	Expectancy_rating	expectancy_rating	0	1500	0	0	20	0	4935	1	When you saw the <b>object</b>,   to what <b>degree (0-100%)</b> did you expect the <b>unpleasant sound to occur</b>?	-16
1	2023-03-17	12:42:11	13:26:14	13:26:14:061	22	1	Expectancy_rating	fixation	0	5	1000	0	0	1	995	1	+	-9
1	2023-03-17	12:42:11	13:26:19	13:26:19:442	22	2	Expectancy_rating	expectancy_rating	0	500	0	0	20	0	5331	1	When you saw the <b>object</b>,   to what <b>degree (0-100%)</b> did you expect the <b>unpleasant sound to occur</b>?	-16
1	2023-03-17	12:42:11	13:26:20	13:26:20:428	23	1	Expectancy_rating	fixation	0	5	500	0	0	1	495	1	+	-9
1	2023-03-17	12:42:11	13:26:23	13:26:23:192	23	2	Expectancy_rating	expectancy_rating	0	1000	0	0	90	0	2717	1	When you saw the <b>object</b>,   to what <b>degree (0-100%)</b> did you expect the <b>unpleasant sound to occur</b>?	-16
1	2023-03-17	12:42:11	13:26:26	13:26:26:678	24	1	Expectancy_rating	fixation	0	5	1500	0	0	1	1495	1	+	-9
1	2023-03-17	12:42:11	13:26:29	13:26:29:826	24	2	Expectancy_rating	expectancy_rating	0	1500	0	0	70	0	3123	1	When you saw the <b>object</b>,   to what <b>degree (0-100%)</b> did you expect the <b>unpleasant sound to occur</b>?	-16
1	2023-03-17	12:42:11	13:26:31	13:26:31:329	25	1	Expectancy_rating	fixation	0	5	1000	0	0	1	995	1	+	-9
1	2023-03-17	12:42:11	13:26:35	13:26:35:077	25	2	Expectancy_rating	expectancy_rating	0	500	0	0	10	0	3720	1	When you saw the <b>object</b>,   to what <b>degree (0-100%)</b> did you expect the <b>unpleasant sound to occur</b>?	-16
1	2023-03-17	12:42:11	13:26:37	13:26:37:080	26	1	Expectancy_rating	fixation	0	5	1500	0	0	1	1495	1	+	-8
1	2023-03-17	12:42:11	13:26:41	13:26:41:310	26	2	Expectancy_rating	expectancy_rating	0	1000	0	0	0	0	4178	1	When you saw the <b>object</b>,   to what <b>degree (0-100%)</b> did you expect the <b>unpleasant sound to occur</b>?	-16
1	2023-03-17	12:42:11	13:26:43	13:26:43:795	27	1	Expectancy_rating	fixation	0	5	500	0	0	1	495	1	+	-9
1	2023-03-17	12:42:11	13:26:47	13:26:47:893	27	2	Expectancy_rating	expectancy_rating	0	500	0	0	10	0	4045	1	When you saw the <b>object</b>,   to what <b>degree (0-100%)</b> did you expect the <b>unpleasant sound to occur</b>?	-16
1	2023-03-17	12:42:11	13:26:49	13:26:49:880	28	1	Expectancy_rating	fixation	0	5	1500	0	0	1	1495	1	+	-9
1	2023-03-17	12:42:11	13:26:52	13:26:52:094	28	2	Expectancy_rating	expectancy_rating	0	1500	0	0	100	0	3185	1	When you saw the <b>object</b>,   to what <b>degree (0-100%)</b> did you expect the <b>unpleasant sound to occur</b>?	-16
1	2023-03-17	12:42:11	13:26:54	13:26:54:096	29	1	Expectancy_rating	fixation	0	5	500	0	0	1	495	1	+	-7
1	2023-03-17	12:42:11	13:26:58	13:26:58:095	29	2	Expectancy_rating	expectancy_rating	0	1000	0	0	100	0	3968	1	When you saw the <b>object</b>,   to what <b>degree (0-100%)</b> did you expect the <b>unpleasant sound to occur</b>?	-16
1	2023-03-17	12:42:11	13:27:00	13:27:00:097	30	1	Expectancy_rating	fixation	0	5	1000	0	0	1	995	1	+	-8
1	2023-03-17	12:42:11	13:27:04	13:27:04:961	30	2	Expectancy_rating	expectancy_rating	0	1500	0	0	10	0	3815	1	When you saw the <b>object</b>,   to what <b>degree (0-100%)</b> did you expect the <b>unpleasant sound to occur</b>?	-16
1	2023-03-17	12:42:11	13:27:07	13:27:07:947	31	1	Expectancy_rating	fixation	0	5	1500	0	0	1	1495	1	+	-9
1	2023-03-17	12:42:11	13:27:13	13:27:13:895	31	2	Expectancy_rating	expectancy_rating	0	500	0	0	10	0	5894	1	When you saw the <b>object</b>,   to what <b>degree (0-100%)</b> did you expect the <b>unpleasant sound to occur</b>?	-16
1	2023-03-17	12:42:11	13:27:14	13:27:14:881	32	1	Expectancy_rating	fixation	0	5	500	0	0	1	495	1	+	-2
1	2023-03-17	12:42:11	13:27:20	13:27:20:841	32	2	Expectancy_rating	expectancy_rating	0	1500	0	0	20	0	5912	1	When you saw the <b>object</b>,   to what <b>degree (0-100%)</b> did you expect the <b>unpleasant sound to occur</b>?	-16
1	2023-03-17	12:42:11	13:27:22	13:27:22:330	33	1	Expectancy_rating	fixation	0	5	1000	0	0	1	995	1	+	-9
1	2023-03-17	12:42:11	13:27:25	13:27:25:196	33	2	Expectancy_rating	expectancy_rating	0	500	0	0	100	0	2814	1	When you saw the <b>object</b>,   to what <b>degree (0-100%)</b> did you expect the <b>unpleasant sound to occur</b>?	-16
1	2023-03-17	12:42:11	13:27:26	13:27:26:182	34	1	Expectancy_rating	fixation	0	5	500	0	0	1	495	1	+	-8
1	2023-03-17	12:42:11	13:27:29	13:27:29:129	34	2	Expectancy_rating	expectancy_rating	0	1000	0	0	10	0	2899	1	When you saw the <b>object</b>,   to what <b>degree (0-100%)</b> did you expect the <b>unpleasant sound to occur</b>?	-16
1	2023-03-17	12:42:11	13:27:31	13:27:31:616	35	1	Expectancy_rating	fixation	0	5	1500	0	0	1	1495	1	+	-9
1	2023-03-17	12:42:11	13:27:35	13:27:35:680	35	2	Expectancy_rating	expectancy_rating	0	1500	0	0	81	0	3041	1	When you saw the <b>object</b>,   to what <b>degree (0-100%)</b> did you expect the <b>unpleasant sound to occur</b>?	-16
1	2023-03-17	12:42:11	13:27:37	13:27:37:182	36	1	Expectancy_rating	fixation	0	5	1000	0	0	1	995	1	+	-8
1	2023-03-17	12:42:11	13:27:41	13:27:41:814	36	2	Expectancy_rating	expectancy_rating	0	500	0	0	10	0	3603	1	When you saw the <b>object</b>,   to what <b>degree (0-100%)</b> did you expect the <b>unpleasant sound to occur</b>?	-16
1	2023-03-17	12:42:11	13:27:42	13:27:42:316	37	1	Expectancy_rating	fixation	0	5	1000	0	0	1	995	1	+	-8
1	2023-03-17	12:42:11	13:27:45	13:27:45:381	37	2	Expectancy_rating	expectancy_rating	0	1000	0	0	0	0	3036	1	When you saw the <b>object</b>,   to what <b>degree (0-100%)</b> did you expect the <b>unpleasant sound to occur</b>?	-16
1	2023-03-17	12:42:11	13:27:47	13:27:47:883	38	1	Expectancy_rating	fixation	0	5	500	0	0	1	495	1	+	-3
1	2023-03-17	12:42:11	13:27:51	13:27:51:981	38	2	Expectancy_rating	expectancy_rating	0	1000	0	0	70	0	4069	1	When you saw the <b>object</b>,   to what <b>degree (0-100%)</b> did you expect the <b>unpleasant sound to occur</b>?	-16
1	2023-03-17	12:42:11	13:27:53	13:27:53:484	39	1	Expectancy_rating	fixation	0	5	1500	0	0	1	1495	1	+	-8
1	2023-03-17	12:42:11	13:27:56	13:27:56:331	39	2	Expectancy_rating	expectancy_rating	0	500	0	0	0	0	2798	1	When you saw the <b>object</b>,   to what <b>degree (0-100%)</b> did you expect the <b>unpleasant sound to occur</b>?	-16
1	2023-03-17	12:42:11	13:27:57	13:27:57:317	40	1	Expectancy_rating	fixation	0	5	500	0	0	1	495	1	+	-8
1	2023-03-17	12:42:11	13:28:01	13:28:01:665	40	2	Expectancy_rating	expectancy_rating	0	1500	0	0	9	0	3324	1	When you saw the <b>object</b>,   to what <b>degree (0-100%)</b> did you expect the <b>unpleasant sound to occur</b>?	-16
1	2023-03-17	12:42:11	13:28:04	13:28:04:667	41	1	Expectancy_rating	fixation	0	5	1500	0	0	1	1495	1	+	0
1	2023-03-17	12:42:11	13:28:06	13:28:06:598	41	2	Expectancy_rating	expectancy_rating	0	500	0	0	0	0	2878	1	When you saw the <b>object</b>,   to what <b>degree (0-100%)</b> did you expect the <b>unpleasant sound to occur</b>?	-16
1	2023-03-17	12:42:11	13:28:08	13:28:08:085	42	1	Expectancy_rating	fixation	0	5	1000	0	0	1	995	1	+	-8
1	2023-03-17	12:42:11	13:28:11	13:28:11:995	42	2	Expectancy_rating	expectancy_rating	0	1000	0	0	0	0	2860	1	When you saw the <b>object</b>,   to what <b>degree (0-100%)</b> did you expect the <b>unpleasant sound to occur</b>?	-16
1	2023-03-17	12:42:11	13:28:12	13:28:12:484	43	1	Expectancy_rating	fixation	0	5	500	0	0	1	495	1	+	-9
1	2023-03-17	12:42:11	13:28:15	13:28:15:865	43	2	Expectancy_rating	expectancy_rating	0	1500	0	0	80	0	2332	1	When you saw the <b>object</b>,   to what <b>degree (0-100%)</b> did you expect the <b>unpleasant sound to occur</b>?	-16
1	2023-03-17	12:42:11	13:28:17	13:28:17:352	44	1	Expectancy_rating	fixation	0	5	1000	0	0	1	995	1	+	-8
1	2023-03-17	12:42:11	13:28:22	13:28:22:199	44	2	Expectancy_rating	expectancy_rating	0	1500	0	0	40	0	4801	1	When you saw the <b>object</b>,   to what <b>degree (0-100%)</b> did you expect the <b>unpleasant sound to occur</b>?	-16
1	2023-03-17	12:42:11	13:28:25	13:28:25:186	45	1	Expectancy_rating	fixation	0	5	1500	0	0	1	1495	1	+	-9
1	2023-03-17	12:42:11	13:28:30	13:28:30:050	45	2	Expectancy_rating	expectancy_rating	0	500	0	0	70	0	4815	1	When you saw the <b>object</b>,   to what <b>degree (0-100%)</b> did you expect the <b>unpleasant sound to occur</b>?	-16
1	2023-03-17	12:42:11	13:28:31	13:28:31:037	46	1	Expectancy_rating	fixation	0	5	500	0	0	1	495	1	+	-9
1	2023-03-17	12:42:11	13:28:35	13:28:35:634	46	2	Expectancy_rating	expectancy_rating	0	1000	0	0	50	0	4573	1	When you saw the <b>object</b>,   to what <b>degree (0-100%)</b> did you expect the <b>unpleasant sound to occur</b>?	-16
1	2023-03-17	12:42:11	13:28:37	13:28:37:636	47	1	Expectancy_rating	fixation	0	5	1000	0	0	1	995	1	+	-7
1	2023-03-17	12:42:11	13:28:41	13:28:41:967	47	2	Expectancy_rating	expectancy_rating	0	500	0	0	10	0	3277	1	When you saw the <b>object</b>,   to what <b>degree (0-100%)</b> did you expect the <b>unpleasant sound to occur</b>?	-16
1	2023-03-17	12:42:11	13:28:43	13:28:43:953	48	1	Expectancy_rating	fixation	0	5	1500	0	0	1	1495	1	+	-8
1	2023-03-17	12:42:11	13:28:45	13:28:45:651	48	2	Expectancy_rating	expectancy_rating	0	1500	0	0	80	0	2672	1	When you saw the <b>object</b>,   to what <b>degree (0-100%)</b> did you expect the <b>unpleasant sound to occur</b>?	-16
1	2023-03-17	12:42:11	13:28:47	13:28:47:654	49	1	Expectancy_rating	fixation	0	5	500	0	0	1	495	1	+	-9
1	2023-03-17	12:42:11	13:28:51	13:28:51:335	49	2	Expectancy_rating	expectancy_rating	0	1000	0	0	60	0	3652	1	When you saw the <b>object</b>,   to what <b>degree (0-100%)</b> did you expect the <b>unpleasant sound to occur</b>?	-16
1	2023-03-17	12:42:11	13:29:14	13:29:14:500	2	1	TNT_Think_CSp	fixation	0	5	1500	0	0	1	1495	1	+	-8
1	2023-03-17	12:42:11	13:29:15	13:29:15:519	2	2	TNT_Think_CSp	Think	0	5	0	0	0	0	1000	1	THINK	-16
1	2023-03-17	12:42:11	13:29:20	13:29:20:535	2	3	TNT_Think_CSp	TNT_Think_CSp	0	5	0	0	0	0	5000	2	Cue19.jpg	-16
1	2023-03-17	12:42:11	13:29:22	13:29:22:619	2	4	TNT_Think_CSp	Intrusion	0	1000	3000	0	81	1	1066	1	How <b>often</b> did you <b>think</b> about the <b>scene</b>?   <center><br><b>NEVER (1)    BRIEFLY (2)   OFTEN (3) </b>	-16
1	2023-03-17	12:42:11	13:29:24	13:29:24:541	3	1	TNT_NoThink_CSm	fixation	0	5	1000	0	0	1	995	1	+	-16
1	2023-03-17	12:42:11	13:29:25	13:29:25:552	3	2	TNT_NoThink_CSm	NoThink	0	5	0	0	0	0	1000	1	DON'T THINK	-16
1	2023-03-17	12:42:11	13:29:31	13:29:31:569	3	3	TNT_NoThink_CSm	TNT_NoThink_CSm	0	5	0	0	0	0	5000	2	Cue8.jpg	-16
1	2023-03-17	12:42:11	13:29:31	13:29:31:155	3	4	TNT_NoThink_CSm	Intrusion	0	500	3000	0	80	1	568	1	How <b>often</b> did you <b>think</b> about the <b>scene</b>?   <center><br><b>NEVER (1)    BRIEFLY (2)   OFTEN (3) </b>	-16
1	2023-03-17	12:42:11	13:29:35	13:29:35:073	4	1	TNT_NoThink_CSp	fixation	0	5	1500	0	0	1	1495	1	+	-9
1	2023-03-17	12:42:11	13:29:36	13:29:36:087	4	2	TNT_NoThink_CSp	NoThink	0	5	0	0	0	0	1000	1	DON'T THINK	-16
1	2023-03-17	12:42:11	13:29:41	13:29:41:103	4	3	TNT_NoThink_CSp	TNT_NoThink_CSp	0	5	0	0	0	0	5000	6	Cue14.jpg	-16
1	2023-03-17	12:42:11	13:29:42	13:29:42:811	4	4	TNT_NoThink_CSp	Intrusion	0	1500	3000	0	80	1	690	1	How <b>often</b> did you <b>think</b> about the <b>scene</b>?   <center><br><b>NEVER (1)    BRIEFLY (2)   OFTEN (3) </b>	-16
1	2023-03-17	12:42:11	13:29:45	13:29:45:607	5	1	TNT_Think_CSm	fixation	0	5	500	0	0	1	495	1	+	-16
1	2023-03-17	12:42:11	13:29:46	13:29:46:620	5	2	TNT_Think_CSm	Think	0	5	0	0	0	0	1000	1	THINK	-16
1	2023-03-17	12:42:11	13:29:51	13:29:51:637	5	3	TNT_Think_CSm	TNT_Think_CSm	0	5	0	0	0	0	5000	1	Cue18.jpg	-16
1	2023-03-17	12:42:11	13:29:51	13:29:51:331	5	4	TNT_Think_CSm	Intrusion	0	500	3000	0	81	1	676	1	How <b>often</b> did you <b>think</b> about the <b>scene</b>?   <center><br><b>NEVER (1)    BRIEFLY (2)   OFTEN (3) </b>	-16
1	2023-03-17	12:42:11	13:29:55	13:29:55:641	6	1	TNT_Object_CSm	fixation	0	5	1000	0	0	1	995	1	+	-16
1	2023-03-17	12:42:11	13:29:56	13:29:56:654	6	2	TNT_Object_CSm	Passive	0	5	0	0	0	0	1000	1	VIEW	-16
1	2023-03-17	12:42:11	13:30:01	13:30:01:671	6	3	TNT_Object_CSm	TNT_Object_CSm	0	500	0	0	0	0	5000	2	Object5.jpg	-16
1	2023-03-17	12:42:11	13:30:03	13:30:03:671	7	1	TNT_Think_CSm	fixation	0	5	1500	0	0	1	1495	1	+	-6
1	2023-03-17	12:42:11	13:30:04	13:30:04:688	7	2	TNT_Think_CSm	Think	0	5	0	0	0	0	1000	1	THINK	-16
1	2023-03-17	12:42:11	13:30:09	13:30:09:705	7	3	TNT_Think_CSm	TNT_Think_CSm	0	5	0	0	0	0	5000	5	Cue9.jpg	-16
1	2023-03-17	12:42:11	13:30:10	13:30:10:955	7	4	TNT_Think_CSm	Intrusion	0	1500	3000	0	81	1	1232	1	How <b>often</b> did you <b>think</b> about the <b>scene</b>?   <center><br><b>NEVER (1)    BRIEFLY (2)   OFTEN (3) </b>	-16
1	2023-03-17	12:42:11	13:30:12	13:30:12:209	8	1	TNT_Think_CSm	fixation	0	5	500	0	0	1	495	1	+	-9
1	2023-03-17	12:42:11	13:30:13	13:30:13:222	8	2	TNT_Think_CSm	Think	0	5	0	0	0	0	1000	1	THINK	-16
1	2023-03-17	12:42:11	13:30:18	13:30:18:239	8	3	TNT_Think_CSm	TNT_Think_CSm	0	5	0	0	0	0	5000	6	Cue12.jpg	-16
1	2023-03-17	12:42:11	13:30:19	13:30:19:851	8	4	TNT_Think_CSm	Intrusion	0	1000	3000	0	81	1	594	1	How <b>often</b> did you <b>think</b> about the <b>scene</b>?   <center><br><b>NEVER (1)    BRIEFLY (2)   OFTEN (3) </b>	-16
1	2023-03-17	12:42:11	13:30:22	13:30:22:242	9	1	TNT_Object_CSp	fixation	0	5	1000	0	0	1	995	1	+	-9
1	2023-03-17	12:42:11	13:30:23	13:30:23:256	9	2	TNT_Object_CSp	Passive	0	5	0	0	0	0	1000	1	VIEW	-16
1	2023-03-17	12:42:11	13:30:28	13:30:28:273	9	3	TNT_Object_CSp	TNT_Object_CSp	0	500	0	0	0	0	5000	1	Object3.jpg	-16
1	2023-03-17	12:42:11	13:30:30	13:30:30:773	10	1	TNT_NoThink_CSm	fixation	0	5	1000	0	0	1	995	1	+	-9
1	2023-03-17	12:42:11	13:30:31	13:30:31:790	10	2	TNT_NoThink_CSm	NoThink	0	5	0	0	0	0	1000	1	DON'T THINK	-16
1	2023-03-17	12:42:11	13:30:36	13:30:36:806	10	3	TNT_NoThink_CSm	TNT_NoThink_CSm	0	5	0	0	0	0	5000	3	Cue10.jpg	-16
1	2023-03-17	12:42:11	13:30:36	13:30:36:467	10	4	TNT_NoThink_CSm	Intrusion	0	1000	3000	0	80	1	642	1	How <b>often</b> did you <b>think</b> about the <b>scene</b>?   <center><br><b>NEVER (1)    BRIEFLY (2)   OFTEN (3) </b>	-16
1	2023-03-17	12:42:11	13:30:40	13:30:40:310	11	1	TNT_NoThink_CSp	fixation	0	5	1500	0	0	1	1495	1	+	-2
1	2023-03-17	12:42:11	13:30:41	13:30:41:324	11	2	TNT_NoThink_CSp	NoThink	0	5	0	0	0	0	1000	1	DON'T THINK	-16
1	2023-03-17	12:42:11	13:30:46	13:30:46:341	11	3	TNT_NoThink_CSp	TNT_NoThink_CSp	0	5	0	0	0	0	5000	2	Cue35.jpg	-16
1	2023-03-17	12:42:11	13:30:48	13:30:48:619	11	4	TNT_NoThink_CSp	Intrusion	0	500	3000	0	79	1	1261	1	How <b>often</b> did you <b>think</b> about the <b>scene</b>?   <center><br><b>NEVER (1)    BRIEFLY (2)   OFTEN (3) </b>	-16
1	2023-03-17	12:42:11	13:30:50	13:30:50:845	12	1	TNT_Think_CSp	fixation	0	5	500	0	0	1	495	1	+	-16
1	2023-03-17	12:42:11	13:30:51	13:30:51:857	12	2	TNT_Think_CSp	Think	0	5	0	0	0	0	1000	1	THINK	-16
1	2023-03-17	12:42:11	13:30:56	13:30:56:875	12	3	TNT_Think_CSp	TNT_Think_CSp	0	5	0	0	0	0	5000	5	Cue20.jpg	-16
1	2023-03-17	12:42:11	13:30:57	13:30:57:755	12	4	TNT_Think_CSp	Intrusion	0	1500	3000	0	81	1	863	1	How <b>often</b> did you <b>think</b> about the <b>scene</b>?   <center><br><b>NEVER (1)    BRIEFLY (2)   OFTEN (3) </b>	-16
1	2023-03-17	12:42:11	13:30:59	13:30:59:379	13	1	TNT_Think_CSp	fixation	0	5	500	0	0	1	495	1	+	-16
1	2023-03-17	12:42:11	13:31:00	13:31:00:392	13	2	TNT_Think_CSp	Think	0	5	0	0	0	0	1000	1	THINK	-16
1	2023-03-17	12:42:11	13:31:05	13:31:05:409	13	3	TNT_Think_CSp	TNT_Think_CSp	0	5	0	0	0	0	5000	1	Cue22.jpg	-16
1	2023-03-17	12:42:11	13:31:07	13:31:07:675	13	4	TNT_Think_CSp	Intrusion	0	500	3000	0	81	1	1249	1	How <b>often</b> did you <b>think</b> about the <b>scene</b>?   <center><br><b>NEVER (1)    BRIEFLY (2)   OFTEN (3) </b>	-16
1	2023-03-17	12:42:11	13:31:10	13:31:10:913	14	1	TNT_Object_CSm	fixation	0	5	1500	0	0	1	1495	1	+	-16
1	2023-03-17	12:42:11	13:31:11	13:31:11:926	14	2	TNT_Object_CSm	Passive	0	5	0	0	0	0	1000	1	VIEW	-16
1	2023-03-17	12:42:11	13:31:16	13:31:16:942	14	3	TNT_Object_CSm	TNT_Object_CSm	0	500	0	0	0	0	5000	3	Object7.jpg	-16
1	2023-03-17	12:42:11	13:31:17	13:31:17:441	15	1	TNT_NoThink_CSm	fixation	0	5	1000	0	0	1	995	1	+	-8
1	2023-03-17	12:42:11	13:31:18	13:31:18:460	15	2	TNT_NoThink_CSm	NoThink	0	5	0	0	0	0	1000	1	DON'T THINK	-16
1	2023-03-17	12:42:11	13:31:23	13:31:23:476	15	3	TNT_NoThink_CSm	TNT_NoThink_CSm	0	5	0	0	0	0	5000	4	Cue29.jpg	-16
1	2023-03-17	12:42:11	13:31:25	13:31:25:915	15	4	TNT_NoThink_CSm	Intrusion	0	1000	3000	0	81	1	1421	1	How <b>often</b> did you <b>think</b> about the <b>scene</b>?   <center><br><b>NEVER (1)    BRIEFLY (2)   OFTEN (3) </b>	-16
1	2023-03-17	12:42:11	13:31:28	13:31:28:980	16	1	TNT_Think_CSp	fixation	0	5	1500	0	0	1	1495	1	+	-9
1	2023-03-17	12:42:11	13:31:29	13:31:29:993	16	2	TNT_Think_CSp	Think	0	5	0	0	0	0	1000	1	THINK	-16
1	2023-03-17	12:42:11	13:31:34	13:31:34:010	16	3	TNT_Think_CSp	TNT_Think_CSp	0	5	0	0	0	0	5000	3	Cue28.jpg	-16
1	2023-03-17	12:42:11	13:31:34	13:31:34:547	16	4	TNT_Think_CSp	Intrusion	0	1500	3000	0	81	1	519	1	How <b>often</b> did you <b>think</b> about the <b>scene</b>?   <center><br><b>NEVER (1)    BRIEFLY (2)   OFTEN (3) </b>	-16
1	2023-03-17	12:42:11	13:31:37	13:31:37:514	17	1	TNT_NoThink_CSm	fixation	0	5	500	0	0	1	495	1	+	-9
1	2023-03-17	12:42:11	13:31:38	13:31:38:528	17	2	TNT_NoThink_CSm	NoThink	0	5	0	0	0	0	1000	1	DON'T THINK	-16
1	2023-03-17	12:42:11	13:31:43	13:31:43:544	17	3	TNT_NoThink_CSm	TNT_NoThink_CSm	0	5	0	0	0	0	5000	1	Cue33.jpg	-16
1	2023-03-17	12:42:11	13:31:44	13:31:44:243	17	4	TNT_NoThink_CSm	Intrusion	0	500	3000	0	80	1	681	1	How <b>often</b> did you <b>think</b> about the <b>scene</b>?   <center><br><b>NEVER (1)    BRIEFLY (2)   OFTEN (3) </b>	-16
1	2023-03-17	12:42:11	13:31:47	13:31:47:548	18	1	TNT_NoThink_CSm	fixation	0	5	1000	0	0	1	995	1	+	-9
1	2023-03-17	12:42:11	13:31:48	13:31:48:562	18	2	TNT_NoThink_CSm	NoThink	0	5	0	0	0	0	1000	1	DON'T THINK	-16
1	2023-03-17	12:42:11	13:31:54	13:31:54:578	18	3	TNT_NoThink_CSm	TNT_NoThink_CSm	0	5	0	0	0	0	5000	6	Cue7.jpg	-16
1	2023-03-17	12:42:11	13:31:55	13:31:55:086	18	4	TNT_NoThink_CSm	Intrusion	0	1500	3000	0	0	0	1500	1	How <b>often</b> did you <b>think</b> about the <b>scene</b>?   <center><br><b>NEVER (1)    BRIEFLY (2)   OFTEN (3) </b>	-16
1	2023-03-17	12:42:11	13:31:58	13:31:58:082	19	1	TNT_NoThink_CSp	fixation	0	5	1500	0	0	1	1495	1	+	-9
1	2023-03-17	12:42:11	13:31:59	13:31:59:095	19	2	TNT_NoThink_CSp	NoThink	0	5	0	0	0	0	1000	1	DON'T THINK	-16
1	2023-03-17	12:42:11	13:32:04	13:32:04:112	19	3	TNT_NoThink_CSp	TNT_NoThink_CSp	0	5	0	0	0	0	5000	3	Cue2.jpg	-16
1	2023-03-17	12:42:11	13:32:04	13:32:04:451	19	4	TNT_NoThink_CSp	Intrusion	0	1000	3000	0	80	1	321	1	How <b>often</b> did you <b>think</b> about the <b>scene</b>?   <center><br><b>NEVER (1)    BRIEFLY (2)   OFTEN (3) </b>	-16
1	2023-03-17	12:42:11	13:32:08	13:32:08:616	20	1	TNT_Think_CSp	fixation	0	5	500	0	0	1	495	1	+	-8
1	2023-03-17	12:42:11	13:32:09	13:32:09:629	20	2	TNT_Think_CSp	Think	0	5	0	0	0	0	1000	1	THINK	-16
1	2023-03-17	12:42:11	13:32:14	13:32:14:646	20	3	TNT_Think_CSp	TNT_Think_CSp	0	5	0	0	0	0	5000	4	Cue17.jpg	-16
1	2023-03-17	12:42:11	13:32:14	13:32:14:435	20	4	TNT_Think_CSp	Intrusion	0	1500	3000	0	81	1	771	1	How <b>often</b> did you <b>think</b> about the <b>scene</b>?   <center><br><b>NEVER (1)    BRIEFLY (2)   OFTEN (3) </b>	-16
1	2023-03-17	12:42:11	13:32:18	13:32:18:649	21	1	TNT_Object_CSp	fixation	0	5	1000	0	0	1	995	1	+	-5
1	2023-03-17	12:42:11	13:32:19	13:32:19:663	21	2	TNT_Object_CSp	Passive	0	5	0	0	0	0	1000	1	VIEW	-16
1	2023-03-17	12:42:11	13:32:24	13:32:24:680	21	3	TNT_Object_CSp	TNT_Object_CSp	0	500	0	0	0	0	5000	2	Object1.jpg	-16
1	2023-03-17	12:42:11	13:32:25	13:32:25:179	22	1	TNT_Object_CSp	fixation	0	5	1000	0	0	1	995	1	+	-9
1	2023-03-17	12:42:11	13:32:26	13:32:26:197	22	2	TNT_Object_CSp	Passive	0	5	0	0	0	0	1000	1	VIEW	-16
1	2023-03-17	12:42:11	13:32:31	13:32:31:214	22	3	TNT_Object_CSp	TNT_Object_CSp	0	1000	0	0	0	0	5000	4	Object4.jpg	-16
1	2023-03-17	12:42:11	13:32:33	13:32:33:713	23	1	TNT_NoThink_CSm	fixation	0	5	500	0	0	1	495	1	+	-8
1	2023-03-17	12:42:11	13:32:34	13:32:34:731	23	2	TNT_NoThink_CSm	NoThink	0	5	0	0	0	0	1000	1	DON'T THINK	-16
1	2023-03-17	12:42:11	13:32:39	13:32:39:747	23	3	TNT_NoThink_CSm	TNT_NoThink_CSm	0	5	0	0	0	0	5000	5	Cue25.jpg	-16
1	2023-03-17	12:42:11	13:32:39	13:32:39:443	23	4	TNT_NoThink_CSm	Intrusion	0	1000	3000	0	80	1	678	1	How <b>often</b> did you <b>think</b> about the <b>scene</b>?   <center><br><b>NEVER (1)    BRIEFLY (2)   OFTEN (3) </b>	-16
1	2023-03-17	12:42:11	13:32:43	13:32:43:251	24	1	TNT_NoThink_CSp	fixation	0	5	1500	0	0	1	1495	1	+	-16
1	2023-03-17	12:42:11	13:32:44	13:32:44:265	24	2	TNT_NoThink_CSp	NoThink	0	5	0	0	0	0	1000	1	DON'T THINK	-16
1	2023-03-17	12:42:11	13:32:49	13:32:49:282	24	3	TNT_NoThink_CSp	TNT_NoThink_CSp	0	5	0	0	0	0	5000	4	Cue21.jpg	-16
1	2023-03-17	12:42:11	13:32:50	13:32:50:115	24	4	TNT_NoThink_CSp	Intrusion	0	500	3000	0	79	1	816	1	How <b>often</b> did you <b>think</b> about the <b>scene</b>?   <center><br><b>NEVER (1)    BRIEFLY (2)   OFTEN (3) </b>	-16
1	2023-03-17	12:42:11	13:32:53	13:32:53:286	25	1	TNT_Think_CSm	fixation	0	5	1000	0	0	1	995	1	+	-16
1	2023-03-17	12:42:11	13:32:54	13:32:54:299	25	2	TNT_Think_CSm	Think	0	5	0	0	0	0	1000	1	THINK	-16
1	2023-03-17	12:42:11	13:32:59	13:32:59:316	25	3	TNT_Think_CSm	TNT_Think_CSm	0	5	0	0	0	0	5000	4	Cue23.jpg	-16
1	2023-03-17	12:42:11	13:33:00	13:33:00:763	25	4	TNT_Think_CSm	Intrusion	0	1000	3000	0	81	1	430	1	How <b>often</b> did you <b>think</b> about the <b>scene</b>?   <center><br><b>NEVER (1)    BRIEFLY (2)   OFTEN (3) </b>	-16
1	2023-03-17	12:42:11	13:33:04	13:33:04:820	26	1	TNT_NoThink_CSp	fixation	0	5	1500	0	0	1	1495	1	+	-16
1	2023-03-17	12:42:11	13:33:05	13:33:05:833	26	2	TNT_NoThink_CSp	NoThink	0	5	0	0	0	0	1000	1	DON'T THINK	-16
1	2023-03-17	12:42:11	13:33:10	13:33:10:849	26	3	TNT_NoThink_CSp	TNT_NoThink_CSp	0	5	0	0	0	0	5000	5	Cue15.jpg	-16
1	2023-03-17	12:42:11	13:33:10	13:33:10:227	26	4	TNT_NoThink_CSp	Intrusion	0	1500	3000	0	80	1	360	1	How <b>often</b> did you <b>think</b> about the <b>scene</b>?   <center><br><b>NEVER (1)    BRIEFLY (2)   OFTEN (3) </b>	-16
1	2023-03-17	12:42:11	13:33:13	13:33:13:353	27	1	TNT_Think_CSp	fixation	0	5	500	0	0	1	495	1	+	-9
1	2023-03-17	12:42:11	13:33:14	13:33:14:366	27	2	TNT_Think_CSp	Think	0	5	0	0	0	0	1000	1	THINK	-16
1	2023-03-17	12:42:11	13:33:19	13:33:19:384	27	3	TNT_Think_CSp	TNT_Think_CSp	0	5	0	0	0	0	5000	6	Cue34.jpg	-16
1	2023-03-17	12:42:11	13:33:20	13:33:20:195	27	4	TNT_Think_CSp	Intrusion	0	500	3000	0	81	1	794	1	How <b>often</b> did you <b>think</b> about the <b>scene</b>?   <center><br><b>NEVER (1)    BRIEFLY (2)   OFTEN (3) </b>	-16
1	2023-03-17	12:42:11	13:33:23	13:33:23:888	28	1	TNT_Think_CSm	fixation	0	5	500	0	0	1	495	1	+	-16
1	2023-03-17	12:42:11	13:33:24	13:33:24:900	28	2	TNT_Think_CSm	Think	0	5	0	0	0	0	1000	1	THINK	-16
1	2023-03-17	12:42:11	13:33:29	13:33:29:917	28	3	TNT_Think_CSm	TNT_Think_CSm	0	5	0	0	0	0	5000	3	Cue31.jpg	-16
1	2023-03-17	12:42:11	13:33:29	13:33:29:539	28	4	TNT_Think_CSm	Intrusion	0	1000	3000	0	81	1	604	1	How <b>often</b> did you <b>think</b> about the <b>scene</b>?   <center><br><b>NEVER (1)    BRIEFLY (2)   OFTEN (3) </b>	-16
1	2023-03-17	12:42:11	13:33:33	13:33:33:922	29	1	TNT_Object_CSm	fixation	0	5	1000	0	0	1	995	1	+	-16
1	2023-03-17	12:42:11	13:33:34	13:33:34:934	29	2	TNT_Object_CSm	Passive	0	5	0	0	0	0	1000	1	VIEW	-16
1	2023-03-17	12:42:11	13:33:39	13:33:39:951	29	3	TNT_Object_CSm	TNT_Object_CSm	0	1500	0	0	0	0	5000	4	Object6.jpg	-16
1	2023-03-17	12:42:11	13:33:42	13:33:42:951	30	1	TNT_Object_CSp	fixation	0	5	1500	0	0	1	1495	1	+	-9
1	2023-03-17	12:42:11	13:33:43	13:33:43:968	30	2	TNT_Object_CSp	Passive	0	5	0	0	0	0	1000	1	VIEW	-16
1	2023-03-17	12:42:11	13:33:48	13:33:48:985	30	3	TNT_Object_CSp	TNT_Object_CSp	0	1500	0	0	0	0	5000	3	Object8.jpg	-16
1	2023-03-17	12:42:11	13:33:51	13:33:51:983	31	1	TNT_Think_CSm	fixation	0	5	1500	0	0	1	1495	1	+	-8
1	2023-03-17	12:42:11	13:33:52	13:33:52:02	31	2	TNT_Think_CSm	Think	0	5	0	0	0	0	1000	1	THINK	-16
1	2023-03-17	12:42:11	13:33:57	13:33:57:019	31	3	TNT_Think_CSm	TNT_Think_CSm	0	5	0	0	0	0	5000	2	Cue6.jpg	-16
1	2023-03-17	12:42:11	13:33:58	13:33:58:099	31	4	TNT_Think_CSm	Intrusion	0	500	3000	0	81	1	1062	1	How <b>often</b> did you <b>think</b> about the <b>scene</b>?   <center><br><b>NEVER (1)    BRIEFLY (2)   OFTEN (3) </b>	-16
1	2023-03-17	12:42:11	13:34:01	13:34:01:023	32	1	TNT_NoThink_CSp	fixation	0	5	1000	0	0	1	995	1	+	-8
1	2023-03-17	12:42:11	13:34:02	13:34:02:036	32	2	TNT_NoThink_CSp	NoThink	0	5	0	0	0	0	1000	1	DON'T THINK	-16
1	2023-03-17	12:42:11	13:34:07	13:34:07:053	32	3	TNT_NoThink_CSp	TNT_NoThink_CSp	0	5	0	0	0	0	5000	1	Cue11.jpg	-16
1	2023-03-17	12:42:11	13:34:08	13:34:08:699	32	4	TNT_NoThink_CSp	Intrusion	0	1500	3000	0	79	1	629	1	How <b>often</b> did you <b>think</b> about the <b>scene</b>?   <center><br><b>NEVER (1)    BRIEFLY (2)   OFTEN (3) </b>	-16
1	2023-03-17	12:42:11	13:34:10	13:34:10:557	33	1	TNT_Object_CSm	fixation	0	5	500	0	0	1	495	1	+	-6
1	2023-03-17	12:42:11	13:34:12	13:34:12:570	33	2	TNT_Object_CSm	Passive	0	5	0	0	0	0	1000	1	VIEW	-16
1	2023-03-17	12:42:11	13:34:17	13:34:17:587	33	3	TNT_Object_CSm	TNT_Object_CSm	0	1000	0	0	0	0	5000	1	Object2.jpg	-16
1	2023-03-17	12:42:11	13:34:18	13:34:18:086	34	1	TNT_Think_CSp	fixation	0	5	500	0	0	1	495	1	+	-8
1	2023-03-17	12:42:11	13:34:19	13:34:19:104	34	2	TNT_Think_CSp	Think	0	5	0	0	0	0	1000	1	THINK	-16
1	2023-03-17	12:42:11	13:34:24	13:34:24:121	34	3	TNT_Think_CSp	TNT_Think_CSp	0	5	0	0	0	0	5000	5	Cue20.jpg	-16
1	2023-03-17	12:42:11	13:34:25	13:34:25:819	34	4	TNT_Think_CSp	Intrusion	0	1500	3000	0	81	1	681	1	How <b>often</b> did you <b>think</b> about the <b>scene</b>?   <center><br><b>NEVER (1)    BRIEFLY (2)   OFTEN (3) </b>	-16
1	2023-03-17	12:42:11	13:34:28	13:34:28:125	35	1	TNT_NoThink_CSm	fixation	0	5	1000	0	0	1	995	1	+	-9
1	2023-03-17	12:42:11	13:34:29	13:34:29:138	35	2	TNT_NoThink_CSm	NoThink	0	5	0	0	0	0	1000	1	DON'T THINK	-16
1	2023-03-17	12:42:11	13:34:34	13:34:34:155	35	3	TNT_NoThink_CSm	TNT_NoThink_CSm	0	5	0	0	0	0	5000	1	Cue33.jpg	-16
1	2023-03-17	12:42:11	13:34:35	13:34:35:947	35	4	TNT_NoThink_CSm	Intrusion	0	1000	3000	0	81	1	775	1	How <b>often</b> did you <b>think</b> about the <b>scene</b>?   <center><br><b>NEVER (1)    BRIEFLY (2)   OFTEN (3) </b>	-16
1	2023-03-17	12:42:11	13:34:39	13:34:39:659	36	1	TNT_NoThink_CSm	fixation	0	5	1500	0	0	1	1495	1	+	-16
1	2023-03-17	12:42:11	13:34:40	13:34:40:672	36	2	TNT_NoThink_CSm	NoThink	0	5	0	0	0	0	1000	1	DON'T THINK	-16
1	2023-03-17	12:42:11	13:34:45	13:34:45:689	36	3	TNT_NoThink_CSm	TNT_NoThink_CSm	0	5	0	0	0	0	5000	6	Cue7.jpg	-16
1	2023-03-17	12:42:11	13:34:45	13:34:45:491	36	4	TNT_NoThink_CSm	Intrusion	0	500	3000	0	80	1	785	1	How <b>often</b> did you <b>think</b> about the <b>scene</b>?   <center><br><b>NEVER (1)    BRIEFLY (2)   OFTEN (3) </b>	-16
1	2023-03-17	12:42:11	13:34:49	13:34:49:693	37	1	TNT_Object_CSm	fixation	0	5	1000	0	0	1	995	1	+	-16
1	2023-03-17	12:42:11	13:34:50	13:34:50:706	37	2	TNT_Object_CSm	Passive	0	5	0	0	0	0	1000	1	VIEW	-16
1	2023-03-17	12:42:11	13:34:55	13:34:55:723	37	3	TNT_Object_CSm	TNT_Object_CSm	0	1000	0	0	0	0	5000	2	Object5.jpg	-16
1	2023-03-17	12:42:11	13:34:57	13:34:57:222	38	1	TNT_NoThink_CSp	fixation	0	5	1500	0	0	1	1495	1	+	-8
1	2023-03-17	12:42:11	13:34:58	13:34:58:240	38	2	TNT_NoThink_CSp	NoThink	0	5	0	0	0	0	1000	1	DON'T THINK	-16
1	2023-03-17	12:42:11	13:35:03	13:35:03:256	38	3	TNT_NoThink_CSp	TNT_NoThink_CSp	0	5	0	0	0	0	5000	4	Cue21.jpg	-16
1	2023-03-17	12:42:11	13:35:04	13:35:04:03	38	4	TNT_NoThink_CSp	Intrusion	0	1500	3000	0	79	1	729	1	How <b>often</b> did you <b>think</b> about the <b>scene</b>?   <center><br><b>NEVER (1)    BRIEFLY (2)   OFTEN (3) </b>	-16
1	2023-03-17	12:42:11	13:35:07	13:35:07:760	39	1	TNT_Object_CSm	fixation	0	5	500	0	0	1	495	1	+	-8
1	2023-03-17	12:42:11	13:35:08	13:35:08:773	39	2	TNT_Object_CSm	Passive	0	5	0	0	0	0	1000	1	VIEW	-16
1	2023-03-17	12:42:11	13:35:13	13:35:13:790	39	3	TNT_Object_CSm	TNT_Object_CSm	0	1500	0	0	0	0	5000	3	Object7.jpg	-16
1	2023-03-17	12:42:11	13:35:15	13:35:15:790	40	1	TNT_NoThink_CSm	fixation	0	5	500	0	0	1	495	1	+	-8
1	2023-03-17	12:42:11	13:35:16	13:35:16:807	40	2	TNT_NoThink_CSm	NoThink	0	5	0	0	0	0	1000	1	DON'T THINK	-16
1	2023-03-17	12:42:11	13:35:21	13:35:21:824	40	3	TNT_NoThink_CSm	TNT_NoThink_CSm	0	5	0	0	0	0	5000	2	Cue8.jpg	-16
